onset	duration	eventnumber	stimulus_file	blockno	trialno	is_faststream	stim	stim_category	category_number	exemplar	exemplar_number	image_name	image_number	aliveness	aliveness_bin	movement	movement_bin	naturalness	naturalness_bin	response_hand_alive	istarget	response	keypressed	rt	correct	time_stimon	time_stimoff	stimdur
94711	100	0	stimuli/movArt/bus/ma_bus07.jpg                  	1	1	1	ma_bus07.jpg         	movArt   	2	bus       	3	bus07       	36	not_alive	0	moves	1	artefact	0	n	0	0        	 	0.0	0	75.7264398001134	75.8264242000878	0.0999843999743462
94861	100	1	stimuli/movNat/waterfall/mn_waterfall02.jpg      	1	1	1	mn_waterfall02.jpg   	movNat   	3	waterfall 	37	waterfall02 	371	not_alive	0	moves	1	natural 	1	n	0	0        	 	0.0	0	75.8764446999412	75.9764260998927	0.0999813999515027
95011	100	2	stimuli/animals/horse/animal_horse04.jpg         	1	1	1	animal_horse04.jpg   	animals  	0	horse     	20	horse04     	203	alive    	1	moves	1	natural 	1	n	0	0        	 	0.0	0	76.0264381000307	76.1264414000325	0.100003300001845
95161	100	3	stimuli/movNat/waves/mn_waves05.jpg              	1	1	1	mn_waves05.jpg       	movNat   	3	waves     	38	waves05     	384	not_alive	0	moves	1	natural 	1	n	0	0        	 	0.0	0	76.1764414000791	76.2764496998861	0.100008299807087
95311	100	4	stimuli/plant2/lemontree/plant_lemontree08.jpg   	1	1	1	plant_lemontree08.jpg	plant2   	7	lemontree 	22	lemontree08 	227	alive    	1	still	0	natural 	1	n	0	0        	 	0.0	0	76.3264498999342	76.426437899936	0.0999880000017583
95461	100	5	stimuli/nonmovNat/cliff/nmn_cliff06.jpg          	1	1	1	nmn_cliff06.jpg      	nonmovNat	5	cliff     	7	cliff06     	75	not_alive	0	still	0	natural 	1	n	0	0        	 	0.0	0	76.4764473999385	76.5764427001122	0.0999953001737595
95611	100	6	stimuli/movArt/car/ma_car03.jpg                  	1	1	1	ma_car03.jpg         	movArt   	2	car       	5	car03       	52	not_alive	0	moves	1	artefact	0	n	0	0        	 	0.0	0	76.6264525000006	76.7264449999202	0.0999924999196082
95761	100	7	stimuli/animals2/lemur/animal_lemur03.jpg        	1	1	1	animal_lemur03.jpg   	animals2 	1	lemur     	23	lemur03     	232	alive    	1	moves	1	natural 	1	n	0	0        	 	0.0	0	76.776720700087	76.8764512999915	0.0997305999044329
95911	100	8	stimuli/animals/horse/animal_horse01.jpg         	1	1	1	animal_horse01.jpg   	animals  	0	horse     	20	horse01     	200	alive    	1	moves	1	natural 	1	n	0	0        	 	0.0	0	76.9264616998844	77.0264926000964	0.100030900212005
96061	100	9	stimuli/plant/tree/plant_tree10.jpg              	1	1	1	plant_tree10.jpg     	plant    	6	tree      	35	tree10      	359	alive    	1	still	0	natural 	1	n	0	0        	 	0.0	0	77.076462399913	77.1764565000776	0.0999941001646221
96211	100	10	stimuli/animals/horse/animal_horse03.jpg         	1	1	1	animal_horse03.jpg   	animals  	0	horse     	20	horse03     	202	alive    	1	moves	1	natural 	1	n	0	0        	 	0.0	0	77.2264763999265	77.326460900018	0.0999845000915229
96361	100	11	stimuli/movArt/train/ma_train03.jpg              	1	1	1	ma_train03.jpg       	movArt   	2	train     	34	train03     	342	not_alive	0	moves	1	artefact	0	n	0	0        	 	0.0	0	77.376470600022	77.476462099934	0.0999914999119937
96511	100	12	stimuli/nonmovArt/lock/nma_lock02.jpg            	1	1	1	nma_lock02.jpg       	nonmovArt	4	lock      	24	lock02      	241	not_alive	0	still	0	artefact	0	n	0	0        	 	0.0	0	77.5264737000689	77.6264835000038	0.100009799934924
96661	100	13	stimuli/nonmovNat/sand/nmn_sand08.jpg            	1	1	1	nmn_sand08.jpg       	nonmovNat	5	sand      	31	sand08      	317	not_alive	0	still	0	natural 	1	n	0	0        	 	0.0	0	77.6764789998997	77.7764483999927	0.0999694000929594
96811	100	14	stimuli/nonmovArt/lock/nma_lock05.jpg            	1	1	1	nma_lock05.jpg       	nonmovArt	4	lock      	24	lock05      	244	not_alive	0	still	0	artefact	0	n	0	0        	 	0.0	0	77.8264864999801	77.9264795999043	0.0999930999241769
96961	100	15	stimuli/animals2/pigeon/animal_pigeon06.jpg      	1	1	1	animal_pigeon06.jpg  	animals2 	1	pigeon    	28	pigeon06    	285	alive    	1	moves	1	natural 	1	n	0	0        	 	0.0	0	77.9764926000498	78.0765013999771	0.100008799927309
97111	100	16	stimuli/movNat/river/mn_river05.jpg              	1	1	1	mn_river05.jpg       	movNat   	3	river     	29	river05     	294	not_alive	0	moves	1	natural 	1	n	0	0        	 	0.0	0	78.1264750999398	78.2264888999052	0.100013799965382
97261	100	17	stimuli/plant/tree/plant_tree02.jpg              	1	1	1	plant_tree02.jpg     	plant    	6	tree      	35	tree02      	351	alive    	1	still	0	natural 	1	n	0	0        	 	0.0	0	78.2765124000143	78.376501099905	0.0999886998906732
97411	100	18	stimuli/animals2/lemur/animal_lemur06.jpg        	1	1	1	animal_lemur06.jpg   	animals2 	1	lemur     	23	lemur06     	235	alive    	1	moves	1	natural 	1	n	0	0        	 	0.0	0	78.4265159999486	78.5265208999626	0.100004900014028
97561	100	19	stimuli/plant/grass/plant_grass02.jpg            	1	1	1	plant_grass02.jpg    	plant    	6	grass     	17	grass02     	171	alive    	1	still	0	natural 	1	n	0	0        	 	0.0	0	78.5765110999346	78.6765155000612	0.100004400126636
97711	100	20	stimuli/animals/dog/animal_dog10.jpg             	1	1	1	animal_dog10.jpg     	animals  	0	dog       	11	dog10       	119	alive    	1	moves	1	natural 	1	n	0	0        	 	0.0	0	78.7265325000044	78.8265021999832	0.0999696999788284
97861	100	21	stimuli/movNat/hotspring/mn_hotspring06.jpg      	1	1	1	mn_hotspring06.jpg   	movNat   	3	hotspring 	21	hotspring06 	215	not_alive	0	moves	1	natural 	1	n	0	1        	a	0.0	0	78.8765398000833	78.9765035999008	0.0999637998174876
98011	100	22	stimuli/movArt/car/ma_car10.jpg                  	1	1	1	ma_car10.jpg         	movArt   	2	car       	5	car10       	59	not_alive	0	moves	1	artefact	0	n	0	0        	 	0.0	0	79.0265313999262	79.1265128001105	0.0999814001843333
98161	100	23	stimuli/nonmovNat/shell/nmn_shell06.jpg          	1	1	1	nmn_shell06.jpg      	nonmovNat	5	shell     	32	shell06     	325	not_alive	0	still	0	natural 	1	n	0	0        	 	0.0	0	79.1765179999638	79.2765267000068	0.100008700042963
98311	100	24	stimuli/movArt/boat/ma_boat04.jpg                	1	1	1	ma_boat04.jpg        	movArt   	2	boat      	2	boat04      	23	not_alive	0	moves	1	artefact	0	n	0	1        	a	0.0	0	79.3265237000305	79.4265306000598	0.100006900029257
98461	100	25	stimuli/movNat/waves/mn_waves02.jpg              	1	1	1	mn_waves02.jpg       	movNat   	3	waves     	38	waves02     	381	not_alive	0	moves	1	natural 	1	n	0	0        	 	0.0	0	79.4765304001048	79.5765362998936	0.100005899788812
98611	100	26	stimuli/animals2/whale/animal_whale08.jpg        	1	1	1	animal_whale08.jpg   	animals2 	1	whale     	39	whale08     	397	alive    	1	moves	1	natural 	1	n	0	0        	 	0.0	0	79.6265489999205	79.7265224999283	0.0999735000077635
98761	100	27	stimuli/plant/cactus/plant_cactus04.jpg          	1	1	1	plant_cactus04.jpg   	plant    	6	cactus    	4	cactus04    	43	alive    	1	still	0	natural 	1	n	0	0        	 	0.0	0	79.7765605999157	79.8765426999889	0.0999821000732482
98911	100	28	stimuli/animals/cat/animal_cat10.jpg             	1	1	1	animal_cat10.jpg     	animals  	0	cat       	6	cat10       	69	alive    	1	moves	1	natural 	1	n	0	0        	 	0.0	0	79.9265610999428	80.0265309000388	0.0999698000960052
99061	100	29	stimuli/plant2/lemontree/plant_lemontree03.jpg   	1	1	1	plant_lemontree03.jpg	plant2   	7	lemontree 	22	lemontree03 	222	alive    	1	still	0	natural 	1	n	0	1        	a	0.0	0	80.0765418000519	80.1765387998894	0.0999969998374581
99211	100	30	stimuli/plant2/fern/plant_fern04.jpg             	1	1	1	plant_fern04.jpg     	plant2   	7	fern      	14	fern04      	143	alive    	1	still	0	natural 	1	n	0	1        	a	0.0	0	80.2265691000503	80.3265601999592	0.0999910999089479
99361	100	31	stimuli/nonmovNat/shell/nmn_shell01.jpg          	1	1	1	nmn_shell01.jpg      	nonmovNat	5	shell     	32	shell01     	320	not_alive	0	still	0	natural 	1	n	0	0        	 	0.0	0	80.3765726999845	80.4765415999573	0.0999688999727368
99511	100	32	stimuli/plant2/moss/plant_moss10.jpg             	1	1	1	plant_moss10.jpg     	plant2   	7	moss      	25	moss10      	259	alive    	1	still	0	natural 	1	n	0	0        	 	0.0	0	80.526552000083	80.6265434001107	0.0999914000276476
99661	100	33	stimuli/movNat/river/mn_river09.jpg              	1	1	1	mn_river09.jpg       	movNat   	3	river     	29	river09     	298	not_alive	0	moves	1	natural 	1	n	0	1        	f	0.0	0	80.6765693998896	80.776577499928	0.100008100038394
99811	100	34	stimuli/nonmovNat/crystal/nmn_crystal09.jpg      	1	1	1	nmn_crystal09.jpg    	nonmovNat	5	crystal   	10	crystal09   	108	not_alive	0	still	0	natural 	1	n	0	0        	 	0.0	0	80.8265649999958	80.9265699000098	0.100004900014028
99961	100	35	stimuli/movArt/boat/ma_boat02.jpg                	1	1	1	ma_boat02.jpg        	movArt   	2	boat      	2	boat02      	21	not_alive	0	moves	1	artefact	0	n	0	0        	 	0.0	0	80.9765802999027	81.0765579000581	0.0999776001553982
100111	100	36	stimuli/animals2/lemur/animal_lemur07.jpg        	1	1	1	animal_lemur07.jpg   	animals2 	1	lemur     	23	lemur07     	236	alive    	1	moves	1	natural 	1	n	0	1        	f	0.0	0	81.1265825999435	81.2265610999894	0.099978500045836
100261	100	37	stimuli/nonmovArt/bench/nma_bench06.jpg          	1	1	1	nma_bench06.jpg      	nonmovArt	4	bench     	1	bench06     	15	not_alive	0	still	0	artefact	0	n	0	0        	 	0.0	0	81.2765850001015	81.3765640000347	0.0999789999332279
100411	100	38	stimuli/plant2/palmtree/plant_palmtree07.jpg     	1	1	1	plant_palmtree07.jpg 	plant2   	7	palmtree  	27	palmtree07  	276	alive    	1	still	0	natural 	1	n	0	1        	f	0.0	0	81.426601300016	81.5265826000832	0.0999813000671566
100561	100	39	stimuli/nonmovArt/headphones/nma_headphones02.jpg	1	1	1	nma_headphones02.jpg 	nonmovArt	4	headphones	18	headphones02	181	not_alive	0	still	0	artefact	0	n	0	0        	 	0.0	0	81.5765937999822	81.6765719999094	0.0999781999271363
100711	100	40	stimuli/plant2/lemontree/plant_lemontree03.jpg   	1	1	1	plant_lemontree03.jpg	plant2   	7	lemontree 	22	lemontree03 	222	alive    	1	still	0	natural 	1	n	0	0        	 	0.0	0	81.7265808000229	81.82657689997	0.0999960999470204
100861	100	41	stimuli/nonmovArt/bench/nma_bench07.jpg          	1	1	1	nma_bench07.jpg      	nonmovArt	4	bench     	1	bench07     	16	not_alive	0	still	0	artefact	0	n	0	0        	 	0.0	0	81.8766191999894	81.9765782000031	0.0999590000137687
101011	100	42	stimuli/movArt/car/ma_car07.jpg                  	1	1	1	ma_car07.jpg         	movArt   	2	car       	5	car07       	56	not_alive	0	moves	1	artefact	0	n	0	0        	 	0.0	0	82.0266042000148	82.1265839000698	0.0999797000549734
101161	100	43	stimuli/movNat/hotspring/mn_hotspring05.jpg      	1	1	1	mn_hotspring05.jpg   	movNat   	3	hotspring 	21	hotspring05 	214	not_alive	0	moves	1	natural 	1	n	0	0        	 	0.0	0	82.1765924999491	82.2766030998901	0.100010599941015
101311	100	44	stimuli/plant/flower/plant_flower06.jpg          	1	1	1	plant_flower06.jpg   	plant    	6	flower    	16	flower06    	165	alive    	1	still	0	natural 	1	n	0	0        	 	0.0	0	82.3266143000219	82.4266075999476	0.0999932999256998
101461	100	45	stimuli/movArt/train/ma_train01.jpg              	1	1	1	ma_train01.jpg       	movArt   	2	train     	34	train01     	340	not_alive	0	moves	1	artefact	0	n	0	0        	 	0.0	0	82.4766184999608	82.5766117000021	0.0999932000413537
101611	100	46	stimuli/movArt/boat/ma_boat09.jpg                	1	1	1	ma_boat09.jpg        	movArt   	2	boat      	2	boat09      	28	not_alive	0	moves	1	artefact	0	n	0	0        	 	0.0	0	82.6266197999939	82.7265985999256	0.099978799931705
101761	100	47	stimuli/animals2/tiger/animal_tiger08.jpg        	1	1	1	animal_tiger08.jpg   	animals2 	1	tiger     	33	tiger08     	337	alive    	1	moves	1	natural 	1	n	0	0        	 	0.0	0	82.7766271000728	82.8766179000959	0.0999908000230789
101911	100	48	stimuli/movArt/bus/ma_bus09.jpg                  	1	1	1	ma_bus09.jpg         	movArt   	2	bus       	3	bus09       	38	not_alive	0	moves	1	artefact	0	n	0	0        	 	0.0	0	82.926615000004	83.0266219000332	0.100006900029257
102061	100	49	stimuli/plant2/clover/plant_clover07.jpg         	1	1	1	plant_clover07.jpg   	plant2   	7	clover    	9	clover07    	96	alive    	1	still	0	natural 	1	n	0	0        	 	0.0	0	83.0766131998971	83.1766234000679	0.1000102001708
102211	100	50	stimuli/plant2/clover/plant_clover01.jpg         	1	1	1	plant_clover01.jpg   	plant2   	7	clover    	9	clover01    	90	alive    	1	still	0	natural 	1	n	0	0        	 	0.0	0	83.2266315000597	83.3266280000098	0.0999964999500662
102361	100	51	stimuli/animals2/bee/animal_bee05.jpg            	1	1	1	animal_bee05.jpg     	animals2 	1	bee       	0	bee05       	4	alive    	1	moves	1	natural 	1	n	0	1        	f	0.0	0	83.3766201001126	83.4766140000429	0.0999938999302685
102511	100	52	stimuli/plant2/fern/plant_fern03.jpg             	1	1	1	plant_fern03.jpg     	plant2   	7	fern      	14	fern03      	142	alive    	1	still	0	natural 	1	n	0	0        	 	0.0	0	83.5266420000698	83.626635099994	0.0999930999241769
102661	100	53	stimuli/animals2/bee/animal_bee05.jpg            	1	1	1	animal_bee05.jpg     	animals2 	1	bee       	0	bee05       	4	alive    	1	moves	1	natural 	1	n	1	0        	 	0.0	0	83.6766411000863	83.776638600044	0.0999974999576807
102811	100	54	stimuli/nonmovArt/clothespeg/nma_clothespeg04.jpg	1	1	1	nma_clothespeg04.jpg 	nonmovArt	4	clothespeg	8	clothespeg04	83	not_alive	0	still	0	artefact	0	n	0	0        	 	0.0	0	83.8266580000054	83.9266264999751	0.099968499969691
102961	100	55	stimuli/animals/eagle/animal_eagle01.jpg         	1	1	1	animal_eagle01.jpg   	animals  	0	eagle     	13	eagle01     	130	alive    	1	moves	1	natural 	1	n	0	0        	 	0.0	0	83.9766361999791	84.076650199946	0.100013999966905
103111	100	56	stimuli/nonmovArt/lock/nma_lock05.jpg            	1	1	1	nma_lock05.jpg       	nonmovArt	4	lock      	24	lock05      	244	not_alive	0	still	0	artefact	0	n	0	0        	 	0.0	0	84.1266554000322	84.2266337999608	0.0999783999286592
103261	100	57	stimuli/nonmovArt/headphones/nma_headphones01.jpg	1	1	1	nma_headphones01.jpg 	nonmovArt	4	headphones	18	headphones01	180	not_alive	0	still	0	artefact	0	n	0	0        	 	0.0	0	84.276659199968	84.3766379000153	0.0999787000473589
103411	100	58	stimuli/animals2/pigeon/animal_pigeon09.jpg      	1	1	1	animal_pigeon09.jpg  	animals2 	1	pigeon    	28	pigeon09    	288	alive    	1	moves	1	natural 	1	n	0	0        	 	0.0	0	84.4266792000271	84.5266418999527	0.099962699925527
103561	100	59	stimuli/nonmovNat/rock/nmn_rock03.jpg            	1	1	1	nmn_rock03.jpg       	nonmovNat	5	rock      	30	rock03      	302	not_alive	0	still	0	natural 	1	n	0	0        	 	0.0	0	84.5766676999628	84.6766641999129	0.0999964999500662
103711	100	60	stimuli/animals/eagle/animal_eagle10.jpg         	1	1	1	animal_eagle10.jpg   	animals  	0	eagle     	13	eagle10     	139	alive    	1	moves	1	natural 	1	n	0	0        	 	0.0	0	84.7266716999002	84.8266751000192	0.100003400119022
103861	100	61	stimuli/plant/vine/plant_vine07.jpg              	1	1	1	plant_vine07.jpg     	plant    	6	vine      	36	vine07      	366	alive    	1	still	0	natural 	1	n	0	0        	 	0.0	0	84.8766596999485	84.976667500101	0.100007800152525
104011	100	62	stimuli/animals/dog/animal_dog07.jpg             	1	1	1	animal_dog07.jpg     	animals  	0	dog       	11	dog07       	116	alive    	1	moves	1	natural 	1	n	0	0        	 	0.0	0	85.0266722999513	85.1266560000368	0.0999837000854313
104161	100	63	stimuli/plant2/palmtree/plant_palmtree06.jpg     	1	1	1	plant_palmtree06.jpg 	plant2   	7	palmtree  	27	palmtree06  	275	alive    	1	still	0	natural 	1	n	0	0        	 	0.0	0	85.1766699999571	85.2766756999772	0.10000570002012
104311	100	64	stimuli/nonmovNat/crystal/nmn_crystal04.jpg      	1	1	1	nmn_crystal04.jpg    	nonmovNat	5	crystal   	10	crystal04   	103	not_alive	0	still	0	natural 	1	n	1	0        	 	0.0	0	85.3266692000907	85.426679499913	0.100010299822316
104461	100	65	stimuli/plant/vine/plant_vine03.jpg              	1	1	1	plant_vine03.jpg     	plant    	6	vine      	36	vine03      	362	alive    	1	still	0	natural 	1	n	0	0        	 	0.0	0	85.4766889000312	85.5766674999613	0.0999785999301821
104611	100	66	stimuli/nonmovNat/sand/nmn_sand08.jpg            	1	1	1	nmn_sand08.jpg       	nonmovNat	5	sand      	31	sand08      	317	not_alive	0	still	0	natural 	1	n	0	1        	f	0.404871199978516	1	85.6266920999624	85.7266911999322	0.0999990999698639
104761	100	67	stimuli/nonmovArt/clothespeg/nma_clothespeg09.jpg	1	1	1	nma_clothespeg09.jpg 	nonmovArt	4	clothespeg	8	clothespeg09	88	not_alive	0	still	0	artefact	0	n	0	0        	 	0.0	0	85.776688599959	85.8766832998954	0.0999946999363601
104911	100	68	stimuli/animals2/pigeon/animal_pigeon06.jpg      	1	1	1	animal_pigeon06.jpg  	animals2 	1	pigeon    	28	pigeon06    	285	alive    	1	moves	1	natural 	1	n	0	0        	 	0.0	0	85.9266915000044	86.0266849000473	0.0999934000428766
105061	100	69	stimuli/movNat/waterfall/mn_waterfall03.jpg      	1	1	1	mn_waterfall03.jpg   	movNat   	3	waterfall 	37	waterfall03 	372	not_alive	0	moves	1	natural 	1	n	0	0        	 	0.0	0	86.0766962000635	86.1766878000926	0.0999916000291705
105211	100	70	stimuli/movArt/helicopter/ma_helicopter07.jpg    	1	1	1	ma_helicopter07.jpg  	movArt   	2	helicopter	19	helicopter07	196	not_alive	0	moves	1	artefact	0	n	0	0        	 	0.0	0	86.2266991999931	86.3267010001	0.100001800106838
105361	100	71	stimuli/plant2/clover/plant_clover04.jpg         	1	1	1	plant_clover04.jpg   	plant2   	7	clover    	9	clover04    	93	alive    	1	still	0	natural 	1	n	0	0        	 	0.0	0	86.376710700104	86.4767034999095	0.0999927998054773
105511	100	72	stimuli/nonmovArt/mug/nma_mug02.jpg              	1	1	1	nma_mug02.jpg        	nonmovArt	4	mug       	26	mug02       	261	not_alive	0	still	0	artefact	0	n	0	0        	 	0.0	0	86.5267258000094	86.6266956001055	0.0999698000960052
105661	100	73	stimuli/nonmovNat/cliff/nmn_cliff10.jpg          	1	1	1	nmn_cliff10.jpg      	nonmovNat	5	cliff     	7	cliff10     	79	not_alive	0	still	0	natural 	1	n	0	0        	 	0.0	0	86.6767349999864	86.7766962999012	0.0999612999148667
105811	100	74	stimuli/animals2/whale/animal_whale10.jpg        	1	1	1	animal_whale10.jpg   	animals2 	1	whale     	39	whale10     	399	alive    	1	moves	1	natural 	1	n	0	0        	 	0.0	0	86.8267053000163	86.9266993999481	0.0999940999317914
105961	100	75	stimuli/nonmovArt/mug/nma_mug07.jpg              	1	1	1	nma_mug07.jpg        	nonmovArt	4	mug       	26	mug07       	266	not_alive	0	still	0	artefact	0	n	0	0        	 	0.0	0	86.9767308998853	87.0767173001077	0.0999864002224058
106111	100	76	stimuli/plant2/fern/plant_fern05.jpg             	1	1	1	plant_fern05.jpg     	plant2   	7	fern      	14	fern05      	144	alive    	1	still	0	natural 	1	n	0	0        	 	0.0	0	87.1267321999185	87.2266752999276	0.0999431000091136
106261	100	77	stimuli/nonmovArt/headphones/nma_headphones09.jpg	1	1	1	nma_headphones09.jpg 	nonmovArt	4	headphones	18	headphones09	188	not_alive	0	still	0	artefact	0	n	0	0        	 	0.0	0	87.2766851000488	87.3766997000203	0.100014599971473
106411	100	78	stimuli/animals/cat/animal_cat08.jpg             	1	1	1	animal_cat08.jpg     	animals  	0	cat       	6	cat08       	67	alive    	1	moves	1	natural 	1	n	0	1        	f	0.0	0	87.4267106000334	87.526703099953	0.0999924999196082
106561	100	79	stimuli/movNat/fire/mn_fire06.jpg                	1	1	1	mn_fire06.jpg        	movNat   	3	fire      	15	fire06      	155	not_alive	0	moves	1	natural 	1	n	0	0        	 	0.0	0	87.576696800068	87.6767062998842	0.100009499816224
110478	100	80	stimuli/movArt/train/ma_train01.jpg              	1	2	1	ma_train01.jpg       	movArt   	2	train     	34	train01     	340	not_alive	0	moves	1	artefact	0	n	0	0        	 	0.0	0	91.4934841999784	91.5934725000989	0.099988300120458
110628	100	81	stimuli/nonmovNat/cliff/nmn_cliff05.jpg          	1	2	1	nmn_cliff05.jpg      	nonmovNat	5	cliff     	7	cliff05     	74	not_alive	0	still	0	natural 	1	n	0	0        	 	0.0	0	91.6435052000452	91.7434787999373	0.0999735998921096
110778	100	82	stimuli/nonmovNat/sand/nmn_sand07.jpg            	1	2	1	nmn_sand07.jpg       	nonmovNat	5	sand      	31	sand07      	316	not_alive	0	still	0	natural 	1	n	0	0        	 	0.0	0	91.7934894999489	91.8934961000923	0.100006600143388
110928	100	83	stimuli/animals/dolphin/animal_dolphin07.jpg     	1	2	1	animal_dolphin07.jpg 	animals  	0	dolphin   	12	dolphin07   	126	alive    	1	moves	1	natural 	1	n	0	0        	 	0.0	0	91.9434925001114	92.0434878000524	0.0999952999409288
111078	100	84	stimuli/nonmovNat/rock/nmn_rock03.jpg            	1	2	1	nmn_rock03.jpg       	nonmovNat	5	rock      	30	rock03      	302	not_alive	0	still	0	natural 	1	n	0	0        	 	0.0	0	92.0934977999423	92.1935028000735	0.100005000131205
111228	100	85	stimuli/movNat/waves/mn_waves10.jpg              	1	2	1	mn_waves10.jpg       	movNat   	3	waves     	38	waves10     	389	not_alive	0	moves	1	natural 	1	n	0	0        	 	0.0	0	92.2435167999938	92.3434919000138	0.0999751000199467
111378	100	86	stimuli/movNat/hotspring/mn_hotspring04.jpg      	1	2	1	mn_hotspring04.jpg   	movNat   	3	hotspring 	21	hotspring04 	213	not_alive	0	moves	1	natural 	1	n	0	0        	 	0.0	0	92.393534099916	92.4934942000546	0.0999601001385599
111528	100	87	stimuli/movNat/waterfall/mn_waterfall06.jpg      	1	2	1	mn_waterfall06.jpg   	movNat   	3	waterfall 	37	waterfall06 	375	not_alive	0	moves	1	natural 	1	n	0	0        	 	0.0	0	92.5435180999338	92.6435114000924	0.0999933001585305
111678	100	88	stimuli/plant/grass/plant_grass06.jpg            	1	2	1	plant_grass06.jpg    	plant    	6	grass     	17	grass06     	175	alive    	1	still	0	natural 	1	n	0	0        	 	0.0	0	92.6935123000294	92.7935027000494	0.0999904000200331
111828	100	89	stimuli/animals2/bee/animal_bee09.jpg            	1	2	1	animal_bee09.jpg     	animals2 	1	bee       	0	bee09       	8	alive    	1	moves	1	natural 	1	n	0	0        	 	0.0	0	92.8435253000352	92.9435056000948	0.0999803000595421
111978	100	90	stimuli/nonmovNat/shell/nmn_shell07.jpg          	1	2	1	nmn_shell07.jpg      	nonmovNat	5	shell     	32	shell07     	326	not_alive	0	still	0	natural 	1	n	0	0        	 	0.0	0	92.9935377999209	93.093510299921	0.099972500000149
112128	100	91	stimuli/nonmovArt/bench/nma_bench08.jpg          	1	2	1	nma_bench08.jpg      	nonmovArt	4	bench     	1	bench08     	17	not_alive	0	still	0	artefact	0	n	0	0        	 	0.0	0	93.1435360000469	93.2435186000075	0.0999825999606401
112278	100	92	stimuli/plant/vine/plant_vine09.jpg              	1	2	1	plant_vine09.jpg     	plant    	6	vine      	36	vine09      	368	alive    	1	still	0	natural 	1	n	0	0        	 	0.0	0	93.2935252999887	93.3935179000255	0.099992600036785
112428	100	93	stimuli/movNat/river/mn_river04.jpg              	1	2	1	mn_river04.jpg       	movNat   	3	river     	29	river04     	293	not_alive	0	moves	1	natural 	1	n	0	0        	 	0.0	0	93.443529299926	93.5435456999112	0.100016399985179
112578	100	94	stimuli/plant2/palmtree/plant_palmtree06.jpg     	1	2	1	plant_palmtree06.jpg 	plant2   	7	palmtree  	27	palmtree06  	275	alive    	1	still	0	natural 	1	n	0	0        	 	0.0	0	93.5935331000946	93.693527400028	0.0999942999333143
112728	100	95	stimuli/nonmovArt/mug/nma_mug10.jpg              	1	2	1	nma_mug10.jpg        	nonmovArt	4	mug       	26	mug10       	269	not_alive	0	still	0	artefact	0	n	0	0        	 	0.0	0	93.7435415000655	93.8435277000535	0.0999861999880522
112878	100	96	stimuli/movNat/fire/mn_fire01.jpg                	1	2	1	mn_fire01.jpg        	movNat   	3	fire      	15	fire01      	150	not_alive	0	moves	1	natural 	1	n	0	0        	 	0.0	0	93.8935440999921	93.9935314999893	0.0999873999971896
113028	100	97	stimuli/plant2/moss/plant_moss06.jpg             	1	2	1	plant_moss06.jpg     	plant2   	7	moss      	25	moss06      	255	alive    	1	still	0	natural 	1	n	1	0        	 	0.0	0	94.0435428000055	94.1435374999419	0.0999946999363601
113178	100	98	stimuli/movArt/bus/ma_bus10.jpg                  	1	2	1	ma_bus10.jpg         	movArt   	2	bus       	3	bus10       	39	not_alive	0	moves	1	artefact	0	n	0	1        	f	0.242040399927646	1	94.1935463000554	94.2935391999781	0.099992899922654
113328	100	99	stimuli/plant/flower/plant_flower05.jpg          	1	2	1	plant_flower05.jpg   	plant    	6	flower    	16	flower05    	164	alive    	1	still	0	natural 	1	n	0	0        	 	0.0	0	94.3435486000963	94.443552199984	0.100003599887714
113478	100	100	stimuli/plant/tree/plant_tree10.jpg              	1	2	1	plant_tree10.jpg     	plant    	6	tree      	35	tree10      	359	alive    	1	still	0	natural 	1	n	0	0        	 	0.0	0	94.4935550999362	94.5935460999608	0.0999910000246018
113628	100	101	stimuli/movArt/helicopter/ma_helicopter05.jpg    	1	2	1	ma_helicopter05.jpg  	movArt   	2	helicopter	19	helicopter05	194	not_alive	0	moves	1	artefact	0	n	0	0        	 	0.0	0	94.6435573000926	94.7435524999164	0.099995199823752
113778	100	102	stimuli/animals/dolphin/animal_dolphin10.jpg     	1	2	1	animal_dolphin10.jpg 	animals  	0	dolphin   	12	dolphin10   	129	alive    	1	moves	1	natural 	1	n	0	0        	 	0.0	0	94.7935663000681	94.8935547999572	0.0999884998891503
113928	100	103	stimuli/animals2/tiger/animal_tiger02.jpg        	1	2	1	animal_tiger02.jpg   	animals2 	1	tiger     	33	tiger02     	331	alive    	1	moves	1	natural 	1	n	0	0        	 	0.0	0	94.9435642999597	95.043557500001	0.0999932000413537
114078	100	104	stimuli/nonmovNat/rock/nmn_rock09.jpg            	1	2	1	nmn_rock09.jpg       	nonmovNat	5	rock      	30	rock09      	308	not_alive	0	still	0	natural 	1	n	0	0        	 	0.0	0	95.0935694999062	95.1935630000662	0.0999935001600534
114228	100	105	stimuli/movArt/helicopter/ma_helicopter03.jpg    	1	2	1	ma_helicopter03.jpg  	movArt   	2	helicopter	19	helicopter03	192	not_alive	0	moves	1	artefact	0	n	0	0        	 	0.0	0	95.2435747999698	95.3435831998941	0.100008399924263
114378	100	106	stimuli/plant/flower/plant_flower02.jpg          	1	2	1	plant_flower02.jpg   	plant    	6	flower    	16	flower02    	161	alive    	1	still	0	natural 	1	n	0	0        	 	0.0	0	95.393576500006	95.4935667999089	0.0999902999028564
114528	100	107	stimuli/animals2/tiger/animal_tiger10.jpg        	1	2	1	animal_tiger10.jpg   	animals2 	1	tiger     	33	tiger10     	339	alive    	1	moves	1	natural 	1	n	0	0        	 	0.0	0	95.5435812000651	95.6435734999832	0.0999922999180853
114678	100	108	stimuli/animals2/whale/animal_whale05.jpg        	1	2	1	animal_whale05.jpg   	animals2 	1	whale     	39	whale05     	394	alive    	1	moves	1	natural 	1	n	0	0        	 	0.0	0	95.6935854000039	95.7935909999069	0.100005599902943
114828	100	109	stimuli/plant/grass/plant_grass03.jpg            	1	2	1	plant_grass03.jpg    	plant    	6	grass     	17	grass03     	172	alive    	1	still	0	natural 	1	n	0	0        	 	0.0	0	95.8435867999215	95.9435799000785	0.0999931001570076
114978	100	110	stimuli/plant/cactus/plant_cactus07.jpg          	1	2	1	plant_cactus07.jpg   	plant    	6	cactus    	4	cactus07    	46	alive    	1	still	0	natural 	1	n	0	0        	 	0.0	0	95.9936009999364	96.0936127000023	0.100011700065807
115128	100	111	stimuli/plant2/moss/plant_moss06.jpg             	1	2	1	plant_moss06.jpg     	plant2   	7	moss      	25	moss06      	255	alive    	1	still	0	natural 	1	n	0	0        	 	0.0	0	96.1435936000198	96.2436039999593	0.100010399939492
115278	100	112	stimuli/movNat/fire/mn_fire01.jpg                	1	2	1	mn_fire01.jpg        	movNat   	3	fire      	15	fire01      	150	not_alive	0	moves	1	natural 	1	n	0	0        	 	0.0	0	96.2935991999693	96.3935901001096	0.0999909001402557
115428	100	113	stimuli/plant/cactus/plant_cactus04.jpg          	1	2	1	plant_cactus04.jpg   	plant    	6	cactus    	4	cactus04    	43	alive    	1	still	0	natural 	1	n	0	0        	 	0.0	0	96.4436013998929	96.5435929999221	0.0999916000291705
115578	100	114	stimuli/animals/eagle/animal_eagle08.jpg         	1	2	1	animal_eagle08.jpg   	animals  	0	eagle     	13	eagle08     	137	alive    	1	moves	1	natural 	1	n	0	0        	 	0.0	0	96.5936042999383	96.6936164000072	0.100012100068852
115728	100	115	stimuli/animals/dog/animal_dog09.jpg             	1	2	1	animal_dog09.jpg     	animals  	0	dog       	11	dog09       	118	alive    	1	moves	1	natural 	1	n	0	0        	 	0.0	0	96.7436091999989	96.8435853999108	0.0999761999119073
115878	100	116	stimuli/nonmovArt/clothespeg/nma_clothespeg07.jpg	1	2	1	nma_clothespeg07.jpg 	nonmovArt	4	clothespeg	8	clothespeg07	86	not_alive	0	still	0	artefact	0	n	0	0        	 	0.0	0	96.8936147000641	96.9936051999684	0.0999904999043792
116028	100	117	stimuli/animals/dolphin/animal_dolphin06.jpg     	1	2	1	animal_dolphin06.jpg 	animals  	0	dolphin   	12	dolphin06   	125	alive    	1	moves	1	natural 	1	n	0	0        	 	0.0	0	97.0436257000547	97.1436199001037	0.0999942000489682
116178	100	118	stimuli/animals/cat/animal_cat02.jpg             	1	2	1	animal_cat02.jpg     	animals  	0	cat       	6	cat02       	61	alive    	1	moves	1	natural 	1	n	0	0        	 	0.0	0	97.1936391999479	97.2936136000789	0.0999744001310319
116328	100	119	stimuli/nonmovNat/crystal/nmn_crystal07.jpg      	1	2	1	nmn_crystal07.jpg    	nonmovNat	5	crystal   	10	crystal07   	106	not_alive	0	still	0	natural 	1	n	0	0        	 	0.0	0	97.3436227999628	97.4436305998824	0.100007799919695
116478	100	120	stimuli/animals/dolphin/animal_dolphin03.jpg     	1	2	1	animal_dolphin03.jpg 	animals  	0	dolphin   	12	dolphin03   	122	alive    	1	moves	1	natural 	1	n	0	0        	 	0.0	0	97.4936385001056	97.5936320999172	0.0999935998115689
116628	100	121	stimuli/animals2/lemur/animal_lemur04.jpg        	1	2	1	animal_lemur04.jpg   	animals2 	1	lemur     	23	lemur04     	233	alive    	1	moves	1	natural 	1	n	0	0        	 	0.0	0	97.6436318000779	97.7436242999974	0.0999924999196082
116778	100	122	stimuli/nonmovNat/crystal/nmn_crystal04.jpg      	1	2	1	nmn_crystal04.jpg    	nonmovNat	5	crystal   	10	crystal04   	103	not_alive	0	still	0	natural 	1	n	0	0        	 	0.0	0	97.7936346998904	97.8936276000459	0.0999929001554847
116928	100	123	stimuli/movNat/waterfall/mn_waterfall05.jpg      	1	2	1	mn_waterfall05.jpg   	movNat   	3	waterfall 	37	waterfall05 	374	not_alive	0	moves	1	natural 	1	n	0	0        	 	0.0	0	97.9436671000439	98.0436307000928	0.0999636000487953
117078	100	124	stimuli/movArt/train/ma_train08.jpg              	1	2	1	ma_train08.jpg       	movArt   	2	train     	34	train08     	347	not_alive	0	moves	1	artefact	0	n	0	0        	 	0.0	0	98.0936420001089	98.1936397999525	0.0999977998435497
117228	100	125	stimuli/animals/cat/animal_cat03.jpg             	1	2	1	animal_cat03.jpg     	animals  	0	cat       	6	cat03       	62	alive    	1	moves	1	natural 	1	n	0	0        	 	0.0	0	98.2436579000205	98.3436394000891	0.0999815000686794
117378	100	126	stimuli/plant/tree/plant_tree08.jpg              	1	2	1	plant_tree08.jpg     	plant    	6	tree      	35	tree08      	357	alive    	1	still	0	natural 	1	n	0	0        	 	0.0	0	98.3936507999897	98.4936430999078	0.0999922999180853
117528	100	127	stimuli/plant/flower/plant_flower10.jpg          	1	2	1	plant_flower10.jpg   	plant    	6	flower    	16	flower10    	169	alive    	1	still	0	natural 	1	n	0	0        	 	0.0	0	98.5436794001143	98.6436463999562	0.099966999841854
117678	100	128	stimuli/plant/flower/plant_flower01.jpg          	1	2	1	plant_flower01.jpg   	plant    	6	flower    	16	flower01    	160	alive    	1	still	0	natural 	1	n	0	0        	 	0.0	0	98.6936812999193	98.7936511998996	0.0999698999803513
117828	100	129	stimuli/plant/grass/plant_grass08.jpg            	1	2	1	plant_grass08.jpg    	plant    	6	grass     	17	grass08     	177	alive    	1	still	0	natural 	1	n	0	0        	 	0.0	0	98.8436614000238	98.9436548999511	0.0999934999272227
117978	100	130	stimuli/nonmovNat/rock/nmn_rock07.jpg            	1	2	1	nmn_rock07.jpg       	nonmovNat	5	rock      	30	rock07      	306	not_alive	0	still	0	natural 	1	n	0	0        	 	0.0	0	98.9936784000602	99.0936553999782	0.0999769999179989
118128	100	131	stimuli/animals2/bee/animal_bee05.jpg            	1	2	1	animal_bee05.jpg     	animals2 	1	bee       	0	bee05       	4	alive    	1	moves	1	natural 	1	n	0	0        	 	0.0	0	99.143668100005	99.2436649999581	0.099996899953112
118278	100	132	stimuli/movArt/car/ma_car10.jpg                  	1	2	1	ma_car10.jpg         	movArt   	2	car       	5	car10       	59	not_alive	0	moves	1	artefact	0	n	0	0        	 	0.0	0	99.2936845000368	99.3936640000902	0.0999795000534505
118428	100	133	stimuli/plant2/palmtree/plant_palmtree04.jpg     	1	2	1	plant_palmtree04.jpg 	plant2   	7	palmtree  	27	palmtree04  	273	alive    	1	still	0	natural 	1	n	0	0        	 	0.0	0	99.4436872000806	99.5436786001082	0.0999914000276476
118578	100	134	stimuli/nonmovArt/headphones/nma_headphones05.jpg	1	2	1	nma_headphones05.jpg 	nonmovArt	4	headphones	18	headphones05	184	not_alive	0	still	0	artefact	0	n	0	0        	 	0.0	0	99.5936795999296	99.6936707999557	0.0999912000261247
118728	100	135	stimuli/animals/horse/animal_horse04.jpg         	1	2	1	animal_horse04.jpg   	animals  	0	horse     	20	horse04     	203	alive    	1	moves	1	natural 	1	n	0	0        	 	0.0	0	99.7436808999628	99.8436747000087	0.0999938000459224
118878	100	136	stimuli/animals/eagle/animal_eagle09.jpg         	1	2	1	animal_eagle09.jpg   	animals  	0	eagle     	13	eagle09     	138	alive    	1	moves	1	natural 	1	n	1	0        	 	0.0	0	99.8936858000234	99.9936778000556	0.0999920000322163
119028	100	137	stimuli/movNat/river/mn_river05.jpg              	1	2	1	mn_river05.jpg       	movNat   	3	river     	29	river05     	294	not_alive	0	moves	1	natural 	1	n	0	1        	f	0.242006999906152	1	100.043694399996	100.143683400005	0.0999890000093728
119178	100	138	stimuli/nonmovNat/cliff/nmn_cliff05.jpg          	1	2	1	nmn_cliff05.jpg      	nonmovNat	5	cliff     	7	cliff05     	74	not_alive	0	still	0	natural 	1	n	0	0        	 	0.0	0	100.193691600114	100.293685100041	0.0999934999272227
119328	100	139	stimuli/plant2/fern/plant_fern08.jpg             	1	2	1	plant_fern08.jpg     	plant2   	7	fern      	14	fern08      	147	alive    	1	still	0	natural 	1	n	0	0        	 	0.0	0	100.343696800061	100.443690499989	0.0999936999287456
119478	100	140	stimuli/plant2/palmtree/plant_palmtree03.jpg     	1	2	1	plant_palmtree03.jpg 	plant2   	7	palmtree  	27	palmtree03  	272	alive    	1	still	0	natural 	1	n	0	0        	 	0.0	0	100.493713000091	100.593694400042	0.0999813999515027
119628	100	141	stimuli/animals/eagle/animal_eagle10.jpg         	1	2	1	animal_eagle10.jpg   	animals  	0	eagle     	13	eagle10     	139	alive    	1	moves	1	natural 	1	n	0	0        	 	0.0	0	100.64370539994	100.743695999961	0.099990600021556
119778	100	142	stimuli/animals2/whale/animal_whale01.jpg        	1	2	1	animal_whale01.jpg   	animals2 	1	whale     	39	whale01     	390	alive    	1	moves	1	natural 	1	n	0	0        	 	0.0	0	100.793706499971	100.893695699982	0.0999892000108957
119928	100	143	stimuli/plant2/lemontree/plant_lemontree05.jpg   	1	2	1	plant_lemontree05.jpg	plant2   	7	lemontree 	22	lemontree05 	224	alive    	1	still	0	natural 	1	n	0	0        	 	0.0	0	100.943711800035	101.043703600066	0.0999918000306934
120078	100	144	stimuli/animals/cat/animal_cat03.jpg             	1	2	1	animal_cat03.jpg     	animals  	0	cat       	6	cat03       	62	alive    	1	moves	1	natural 	1	n	0	0        	 	0.0	0	101.093717199983	101.193707400002	0.0999902000185102
120228	100	145	stimuli/animals2/pigeon/animal_pigeon01.jpg      	1	2	1	animal_pigeon01.jpg  	animals2 	1	pigeon    	28	pigeon01    	280	alive    	1	moves	1	natural 	1	n	0	0        	 	0.0	0	101.24373509991	101.343726800056	0.0999917001463473
120378	100	146	stimuli/movNat/waves/mn_waves01.jpg              	1	2	1	mn_waves01.jpg       	movNat   	3	waves     	38	waves01     	380	not_alive	0	moves	1	natural 	1	n	1	0        	 	0.0	0	101.393722899957	101.493712600088	0.0999897001311183
120528	100	147	stimuli/nonmovArt/mug/nma_mug03.jpg              	1	2	1	nma_mug03.jpg        	nonmovArt	4	mug       	26	mug03       	262	not_alive	0	still	0	artefact	0	n	0	0        	 	0.0	0	101.543726000004	101.643752800068	0.10002680006437
120678	100	148	stimuli/nonmovArt/mug/nma_mug07.jpg              	1	2	1	nma_mug07.jpg        	nonmovArt	4	mug       	26	mug07       	266	not_alive	0	still	0	artefact	0	n	0	1        	f	0.391979099949822	1	101.693732199958	101.793723500101	0.0999913001433015
120828	100	149	stimuli/nonmovArt/lock/nma_lock01.jpg            	1	2	1	nma_lock01.jpg       	nonmovArt	4	lock      	24	lock01      	240	not_alive	0	still	0	artefact	0	n	0	1        	a	0.450180500047281	1	101.843734499998	101.943726500031	0.0999920000322163
120978	100	150	stimuli/animals2/lemur/animal_lemur08.jpg        	1	2	1	animal_lemur08.jpg   	animals2 	1	lemur     	23	lemur08     	237	alive    	1	moves	1	natural 	1	n	0	0        	 	0.0	0	101.993738400051	102.093731899979	0.0999934999272227
121128	100	151	stimuli/movArt/helicopter/ma_helicopter04.jpg    	1	2	1	ma_helicopter04.jpg  	movArt   	2	helicopter	19	helicopter04	193	not_alive	0	moves	1	artefact	0	n	0	0        	 	0.0	0	102.143751499942	102.243751399918	0.0999998999759555
121278	100	152	stimuli/movNat/fire/mn_fire03.jpg                	1	2	1	mn_fire03.jpg        	movNat   	3	fire      	15	fire03      	152	not_alive	0	moves	1	natural 	1	n	0	0        	 	0.0	0	102.293756299885	102.393763799919	0.100007500033826
121428	100	153	stimuli/nonmovArt/headphones/nma_headphones08.jpg	1	2	1	nma_headphones08.jpg 	nonmovArt	4	headphones	18	headphones08	187	not_alive	0	still	0	artefact	0	n	0	0        	 	0.0	0	102.443748800084	102.543755399995	0.100006599910557
121578	100	154	stimuli/plant/grass/plant_grass05.jpg            	1	2	1	plant_grass05.jpg    	plant    	6	grass     	17	grass05     	174	alive    	1	still	0	natural 	1	n	0	0        	 	0.0	0	102.593751899898	102.693747499958	0.0999956000596285
121728	100	155	stimuli/plant/tree/plant_tree09.jpg              	1	2	1	plant_tree09.jpg     	plant    	6	tree      	35	tree09      	358	alive    	1	still	0	natural 	1	n	0	0        	 	0.0	0	102.743757900083	102.84374910011	0.0999912000261247
121878	100	156	stimuli/animals/dog/animal_dog03.jpg             	1	2	1	animal_dog03.jpg     	animals  	0	dog       	11	dog03       	112	alive    	1	moves	1	natural 	1	n	0	0        	 	0.0	0	102.893760300009	102.993767000036	0.100006700027734
122028	100	157	stimuli/movNat/river/mn_river07.jpg              	1	2	1	mn_river07.jpg       	movNat   	3	river     	29	river07     	296	not_alive	0	moves	1	natural 	1	n	0	0        	 	0.0	0	103.043763000052	103.143767700065	0.100004700012505
122178	100	158	stimuli/plant2/clover/plant_clover03.jpg         	1	2	1	plant_clover03.jpg   	plant2   	7	clover    	9	clover03    	92	alive    	1	still	0	natural 	1	n	0	0        	 	0.0	0	103.193767300108	103.293759699911	0.0999923998024315
122328	100	159	stimuli/plant/tree/plant_tree04.jpg              	1	2	1	plant_tree04.jpg     	plant    	6	tree      	35	tree04      	353	alive    	1	still	0	natural 	1	n	0	0        	 	0.0	0	103.343781099888	103.443763399962	0.099982300074771
125545	100	160	stimuli/animals/dolphin/animal_dolphin06.jpg     	1	3	1	animal_dolphin06.jpg 	animals  	0	dolphin   	12	dolphin06   	125	alive    	1	moves	1	natural 	1	n	0	0        	 	0.0	0	106.560525499983	106.660520100035	0.099994600052014
125695	100	161	stimuli/nonmovArt/mug/nma_mug09.jpg              	1	3	1	nma_mug09.jpg        	nonmovArt	4	mug       	26	mug09       	268	not_alive	0	still	0	artefact	0	n	0	0        	 	0.0	0	106.710533000063	106.81051329989	0.0999802998267114
125845	100	162	stimuli/nonmovArt/clothespeg/nma_clothespeg03.jpg	1	3	1	nma_clothespeg03.jpg 	nonmovArt	4	clothespeg	8	clothespeg03	82	not_alive	0	still	0	artefact	0	n	0	0        	 	0.0	0	106.860525500029	106.960517599946	0.0999920999165624
125995	100	163	stimuli/nonmovArt/clothespeg/nma_clothespeg06.jpg	1	3	1	nma_clothespeg06.jpg 	nonmovArt	4	clothespeg	8	clothespeg06	85	not_alive	0	still	0	artefact	0	n	0	0        	 	0.0	0	107.010525600053	107.11051820009	0.099992600036785
126145	100	164	stimuli/nonmovNat/shell/nmn_shell09.jpg          	1	3	1	nmn_shell09.jpg      	nonmovNat	5	shell     	32	shell09     	328	not_alive	0	still	0	natural 	1	n	0	0        	 	0.0	0	107.160535400035	107.260523299919	0.0999878998845816
126295	100	165	stimuli/nonmovArt/bench/nma_bench08.jpg          	1	3	1	nma_bench08.jpg      	nonmovArt	4	bench     	1	bench08     	17	not_alive	0	still	0	artefact	0	n	0	0        	 	0.0	0	107.310533599928	107.410526599968	0.0999930000398308
126445	100	166	stimuli/nonmovNat/crystal/nmn_crystal06.jpg      	1	3	1	nmn_crystal06.jpg    	nonmovNat	5	crystal   	10	crystal06   	105	not_alive	0	still	0	natural 	1	n	0	0        	 	0.0	0	107.460569800111	107.560530999908	0.0999611997976899
126595	100	167	stimuli/plant2/moss/plant_moss09.jpg             	1	3	1	plant_moss09.jpg     	plant2   	7	moss      	25	moss09      	258	alive    	1	still	0	natural 	1	n	0	0        	 	0.0	0	107.610538400011	107.710532400059	0.0999940000474453
126745	100	168	stimuli/nonmovNat/shell/nmn_shell01.jpg          	1	3	1	nmn_shell01.jpg      	nonmovNat	5	shell     	32	shell01     	320	not_alive	0	still	0	natural 	1	n	0	0        	 	0.0	0	107.760543599958	107.860537800007	0.0999942000489682
126895	100	169	stimuli/nonmovArt/bench/nma_bench09.jpg          	1	3	1	nma_bench09.jpg      	nonmovArt	4	bench     	1	bench09     	18	not_alive	0	still	0	artefact	0	n	0	0        	 	0.0	0	107.910548399901	108.010540599935	0.0999922000337392
127045	100	170	stimuli/animals/dolphin/animal_dolphin01.jpg     	1	3	1	animal_dolphin01.jpg 	animals  	0	dolphin   	12	dolphin01   	120	alive    	1	moves	1	natural 	1	n	0	0        	 	0.0	0	108.060573199997	108.160560199991	0.0999869999941438
127195	100	171	stimuli/movNat/waterfall/mn_waterfall01.jpg      	1	3	1	mn_waterfall01.jpg   	movNat   	3	waterfall 	37	waterfall01 	370	not_alive	0	moves	1	natural 	1	n	0	0        	 	0.0	0	108.210555299884	108.31054960005	0.099994300166145
127345	100	172	stimuli/movNat/hotspring/mn_hotspring07.jpg      	1	3	1	mn_hotspring07.jpg   	movNat   	3	hotspring 	21	hotspring07 	216	not_alive	0	moves	1	natural 	1	n	0	0        	 	0.0	0	108.360561300069	108.460554100107	0.0999928000383079
127495	100	173	stimuli/nonmovArt/lock/nma_lock03.jpg            	1	3	1	nma_lock03.jpg       	nonmovArt	4	lock      	24	lock03      	242	not_alive	0	still	0	artefact	0	n	0	0        	 	0.0	0	108.510562299984	108.610554300016	0.0999920000322163
127645	100	174	stimuli/movArt/helicopter/ma_helicopter10.jpg    	1	3	1	ma_helicopter10.jpg  	movArt   	2	helicopter	19	helicopter10	199	not_alive	0	moves	1	artefact	0	n	0	0        	 	0.0	0	108.660569200059	108.76055840007	0.0999892000108957
127795	100	175	stimuli/movArt/car/ma_car05.jpg                  	1	3	1	ma_car05.jpg         	movArt   	2	car       	5	car05       	54	not_alive	0	moves	1	artefact	0	n	0	0        	 	0.0	0	108.8105715001	108.910578999901	0.100007499800995
127945	100	176	stimuli/plant/grass/plant_grass04.jpg            	1	3	1	plant_grass04.jpg    	plant    	6	grass     	17	grass04     	173	alive    	1	still	0	natural 	1	n	0	0        	 	0.0	0	108.960582999978	109.060567300068	0.09998430009
128095	100	177	stimuli/movArt/train/ma_train09.jpg              	1	3	1	ma_train09.jpg       	movArt   	2	train     	34	train09     	348	not_alive	0	moves	1	artefact	0	n	0	0        	 	0.0	0	109.110578499967	109.210570799885	0.0999922999180853
128245	100	178	stimuli/movNat/hotspring/mn_hotspring03.jpg      	1	3	1	mn_hotspring03.jpg   	movNat   	3	hotspring 	21	hotspring03 	212	not_alive	0	moves	1	natural 	1	n	0	0        	 	0.0	0	109.260579899885	109.360573099926	0.0999932000413537
128395	100	179	stimuli/nonmovNat/sand/nmn_sand09.jpg            	1	3	1	nmn_sand09.jpg       	nonmovNat	5	sand      	31	sand09      	318	not_alive	0	still	0	natural 	1	n	0	0        	 	0.0	0	109.410583599936	109.510576399975	0.0999928000383079
128545	100	180	stimuli/animals2/tiger/animal_tiger04.jpg        	1	3	1	animal_tiger04.jpg   	animals2 	1	tiger     	33	tiger04     	333	alive    	1	moves	1	natural 	1	n	0	0        	 	0.0	0	109.5605868001	109.660602299962	0.100015499861911
128695	100	181	stimuli/movArt/helicopter/ma_helicopter10.jpg    	1	3	1	ma_helicopter10.jpg  	movArt   	2	helicopter	19	helicopter10	199	not_alive	0	moves	1	artefact	0	n	0	0        	 	0.0	0	109.710592299933	109.810585000087	0.0999927001539618
128845	100	182	stimuli/movNat/hotspring/mn_hotspring09.jpg      	1	3	1	mn_hotspring09.jpg   	movNat   	3	hotspring 	21	hotspring09 	218	not_alive	0	moves	1	natural 	1	n	0	0        	 	0.0	0	109.860596399987	109.960588000016	0.0999916000291705
128995	100	183	stimuli/movArt/car/ma_car06.jpg                  	1	3	1	ma_car06.jpg         	movArt   	2	car       	5	car06       	55	not_alive	0	moves	1	artefact	0	n	0	0        	 	0.0	0	110.010599100031	110.110591100063	0.0999920000322163
129145	100	184	stimuli/animals/horse/animal_horse01.jpg         	1	3	1	animal_horse01.jpg   	animals  	0	horse     	20	horse01     	200	alive    	1	moves	1	natural 	1	n	0	0        	 	0.0	0	110.160603600089	110.260611299891	0.100007699802518
129295	100	185	stimuli/animals2/lemur/animal_lemur04.jpg        	1	3	1	animal_lemur04.jpg   	animals2 	1	lemur     	23	lemur04     	233	alive    	1	moves	1	natural 	1	n	0	0        	 	0.0	0	110.310617499985	110.410621599993	0.100004100007936
129445	100	186	stimuli/animals2/pigeon/animal_pigeon06.jpg      	1	3	1	animal_pigeon06.jpg  	animals2 	1	pigeon    	28	pigeon06    	285	alive    	1	moves	1	natural 	1	n	0	0        	 	0.0	0	110.460609599948	110.56060509989	0.0999954999424517
129595	100	187	stimuli/plant/flower/plant_flower05.jpg          	1	3	1	plant_flower05.jpg   	plant    	6	flower    	16	flower05    	164	alive    	1	still	0	natural 	1	n	0	0        	 	0.0	0	110.610614399891	110.710606399924	0.0999920000322163
129745	100	188	stimuli/animals/dog/animal_dog09.jpg             	1	3	1	animal_dog09.jpg     	animals  	0	dog       	11	dog09       	118	alive    	1	moves	1	natural 	1	n	0	0        	 	0.0	0	110.760619600071	110.860611000098	0.0999914000276476
129895	100	189	stimuli/plant/vine/plant_vine03.jpg              	1	3	1	plant_vine03.jpg     	plant    	6	vine      	36	vine03      	362	alive    	1	still	0	natural 	1	n	0	0        	 	0.0	0	110.910619799979	111.01061820006	0.0999984000809491
130045	100	190	stimuli/plant2/moss/plant_moss02.jpg             	1	3	1	plant_moss02.jpg     	plant2   	7	moss      	25	moss02      	251	alive    	1	still	0	natural 	1	n	0	0        	 	0.0	0	111.060623999918	111.160637799883	0.100013799965382
130195	100	191	stimuli/movArt/boat/ma_boat09.jpg                	1	3	1	ma_boat09.jpg        	movArt   	2	boat      	2	boat09      	28	not_alive	0	moves	1	artefact	0	n	0	0        	 	0.0	0	111.210652099922	111.3106215999	0.0999694999773055
130345	100	192	stimuli/plant/cactus/plant_cactus09.jpg          	1	3	1	plant_cactus09.jpg   	plant    	6	cactus    	4	cactus09    	48	alive    	1	still	0	natural 	1	n	0	0        	 	0.0	0	111.36063209991	111.460625400068	0.0999933001585305
130495	100	193	stimuli/plant/cactus/plant_cactus04.jpg          	1	3	1	plant_cactus04.jpg   	plant    	6	cactus    	4	cactus04    	43	alive    	1	still	0	natural 	1	n	0	0        	 	0.0	0	111.510664199945	111.610626799986	0.0999626000411808
130645	100	194	stimuli/nonmovNat/cliff/nmn_cliff08.jpg          	1	3	1	nmn_cliff08.jpg      	nonmovNat	5	cliff     	7	cliff08     	77	not_alive	0	still	0	natural 	1	n	1	1        	f	-0.007887199986726	1	111.660640199902	111.760632799938	0.099992600036785
130795	100	195	stimuli/plant2/fern/plant_fern03.jpg             	1	3	1	plant_fern03.jpg     	plant2   	7	fern      	14	fern03      	142	alive    	1	still	0	natural 	1	n	0	0        	 	0.0	0	111.810642299941	111.910637299996	0.0999950000550598
130945	100	196	stimuli/movNat/waterfall/mn_waterfall09.jpg      	1	3	1	mn_waterfall09.jpg   	movNat   	3	waterfall 	37	waterfall09 	378	not_alive	0	moves	1	natural 	1	n	0	0        	 	0.0	0	111.960647600004	112.060639800038	0.0999922000337392
131095	100	197	stimuli/animals2/whale/animal_whale05.jpg        	1	3	1	animal_whale05.jpg   	animals2 	1	whale     	39	whale05     	394	alive    	1	moves	1	natural 	1	n	0	0        	 	0.0	0	112.110663499916	112.210640799953	0.0999773000366986
131245	100	198	stimuli/movArt/boat/ma_boat07.jpg                	1	3	1	ma_boat07.jpg        	movArt   	2	boat      	2	boat07      	26	not_alive	0	moves	1	artefact	0	n	0	0        	 	0.0	0	112.260673699901	112.360646599904	0.0999729000031948
131395	100	199	stimuli/animals2/bee/animal_bee08.jpg            	1	3	1	animal_bee08.jpg     	animals2 	1	bee       	0	bee08       	7	alive    	1	moves	1	natural 	1	n	1	0        	 	0.0	0	112.410670500016	112.510660900036	0.0999904000200331
131545	100	200	stimuli/nonmovArt/clothespeg/nma_clothespeg03.jpg	1	3	1	nma_clothespeg03.jpg 	nonmovArt	4	clothespeg	8	clothespeg03	82	not_alive	0	still	0	artefact	0	n	0	0        	 	0.0	0	112.560660300078	112.660670500016	0.100010199937969
131695	100	201	stimuli/animals2/whale/animal_whale05.jpg        	1	3	1	animal_whale05.jpg   	animals2 	1	whale     	39	whale05     	394	alive    	1	moves	1	natural 	1	n	0	0        	 	0.0	0	112.710668799933	112.81065930007	0.0999905001372099
131845	100	202	stimuli/plant/vine/plant_vine07.jpg              	1	3	1	plant_vine07.jpg     	plant    	6	vine      	36	vine07      	366	alive    	1	still	0	natural 	1	n	0	1        	f	0.541994699975476	1	112.860669099959	112.9606623	0.0999932000413537
131995	100	203	stimuli/nonmovNat/rock/nmn_rock04.jpg            	1	3	1	nmn_rock04.jpg       	nonmovNat	5	rock      	30	rock04      	303	not_alive	0	still	0	natural 	1	n	0	0        	 	0.0	0	113.010680400068	113.110693400027	0.10001299995929
132145	100	204	stimuli/movNat/fire/mn_fire03.jpg                	1	3	1	mn_fire03.jpg        	movNat   	3	fire      	15	fire03      	152	not_alive	0	moves	1	natural 	1	n	0	0        	 	0.0	0	113.160683100112	113.26067229989	0.0999891997780651
132295	100	205	stimuli/movNat/waves/mn_waves01.jpg              	1	3	1	mn_waves01.jpg       	movNat   	3	waves     	38	waves01     	380	not_alive	0	moves	1	natural 	1	n	0	0        	 	0.0	0	113.310679600108	113.410672599915	0.0999929998070002
132445	100	206	stimuli/animals/cat/animal_cat08.jpg             	1	3	1	animal_cat08.jpg     	animals  	0	cat       	6	cat08       	67	alive    	1	moves	1	natural 	1	n	1	0        	 	0.0	0	113.460683000041	113.560676400084	0.0999934000428766
132595	100	207	stimuli/movArt/bus/ma_bus07.jpg                  	1	3	1	ma_bus07.jpg         	movArt   	2	bus       	3	bus07       	36	not_alive	0	moves	1	artefact	0	n	0	0        	 	0.0	0	113.610700200079	113.710681499913	0.0999812998343259
132745	100	208	stimuli/nonmovArt/headphones/nma_headphones06.jpg	1	3	1	nma_headphones06.jpg 	nonmovArt	4	headphones	18	headphones06	185	not_alive	0	still	0	artefact	0	n	0	1        	f	0.306692600017413	1	113.760702600004	113.860683900071	0.0999813000671566
132895	100	209	stimuli/nonmovNat/rock/nmn_rock07.jpg            	1	3	1	nmn_rock07.jpg       	nonmovNat	5	rock      	30	rock07      	306	not_alive	0	still	0	natural 	1	n	0	0        	 	0.0	0	113.91069369996	114.010686999885	0.0999932999256998
133045	100	210	stimuli/plant2/clover/plant_clover10.jpg         	1	3	1	plant_clover10.jpg   	plant2   	7	clover    	9	clover10    	99	alive    	1	still	0	natural 	1	n	0	0        	 	0.0	0	114.060696200002	114.160700700013	0.100004500010982
133195	100	211	stimuli/plant2/lemontree/plant_lemontree05.jpg   	1	3	1	plant_lemontree05.jpg	plant2   	7	lemontree 	22	lemontree05 	224	alive    	1	still	0	natural 	1	n	1	0        	 	0.0	0	114.210712200031	114.310694799991	0.0999825999606401
133345	100	212	stimuli/movNat/fire/mn_fire07.jpg                	1	3	1	mn_fire07.jpg        	movNat   	3	fire      	15	fire07      	156	not_alive	0	moves	1	natural 	1	n	0	0        	 	0.0	0	114.360704899998	114.460706900107	0.100002000108361
133495	100	213	stimuli/plant2/clover/plant_clover03.jpg         	1	3	1	plant_clover03.jpg   	plant2   	7	clover    	9	clover03    	92	alive    	1	still	0	natural 	1	n	0	1        	f	0.391979200066999	1	114.510718999896	114.610702200094	0.0999832001980394
133645	100	214	stimuli/animals2/tiger/animal_tiger03.jpg        	1	3	1	animal_tiger03.jpg   	animals2 	1	tiger     	33	tiger03     	332	alive    	1	moves	1	natural 	1	n	0	0        	 	0.0	0	114.660713700112	114.76070809993	0.0999943998176604
133795	100	215	stimuli/movNat/river/mn_river02.jpg              	1	3	1	mn_river02.jpg       	movNat   	3	river     	29	river02     	291	not_alive	0	moves	1	natural 	1	n	0	0        	 	0.0	0	114.810717700049	114.910721899942	0.100004199892282
133945	100	216	stimuli/plant/vine/plant_vine04.jpg              	1	3	1	plant_vine04.jpg     	plant    	6	vine      	36	vine04      	363	alive    	1	still	0	natural 	1	n	0	0        	 	0.0	0	114.960719200084	115.060711999889	0.0999927998054773
134095	100	217	stimuli/animals/horse/animal_horse02.jpg         	1	3	1	animal_horse02.jpg   	animals  	0	horse     	20	horse02     	201	alive    	1	moves	1	natural 	1	n	0	0        	 	0.0	0	115.110724800033	115.210745200049	0.100020400015637
134245	100	218	stimuli/plant2/moss/plant_moss08.jpg             	1	3	1	plant_moss08.jpg     	plant2   	7	moss      	25	moss08      	257	alive    	1	still	0	natural 	1	n	0	0        	 	0.0	0	115.260728399968	115.360721600009	0.0999932000413537
134395	100	219	stimuli/nonmovNat/cliff/nmn_cliff06.jpg          	1	3	1	nmn_cliff06.jpg      	nonmovNat	5	cliff     	7	cliff06     	75	not_alive	0	still	0	natural 	1	n	0	0        	 	0.0	0	115.410729700001	115.51072390005	0.0999942000489682
134545	100	220	stimuli/plant2/lemontree/plant_lemontree07.jpg   	1	3	1	plant_lemontree07.jpg	plant2   	7	lemontree 	22	lemontree07 	226	alive    	1	still	0	natural 	1	n	0	0        	 	0.0	0	115.560734200059	115.660732300021	0.0999980999622494
134695	100	221	stimuli/animals2/tiger/animal_tiger05.jpg        	1	3	1	animal_tiger05.jpg   	animals2 	1	tiger     	33	tiger05     	334	alive    	1	moves	1	natural 	1	n	0	0        	 	0.0	0	115.71073790011	115.81074570003	0.100007799919695
134845	100	222	stimuli/nonmovNat/sand/nmn_sand09.jpg            	1	3	1	nmn_sand09.jpg       	nonmovNat	5	sand      	31	sand09      	318	not_alive	0	still	0	natural 	1	n	0	0        	 	0.0	0	115.860741599929	115.960763799958	0.100022200029343
134995	100	223	stimuli/plant/cactus/plant_cactus09.jpg          	1	3	1	plant_cactus09.jpg   	plant    	6	cactus    	4	cactus09    	48	alive    	1	still	0	natural 	1	n	0	0        	 	0.0	0	116.010744299972	116.110738500021	0.0999942000489682
135145	100	224	stimuli/nonmovArt/lock/nma_lock03.jpg            	1	3	1	nma_lock03.jpg       	nonmovArt	4	lock      	24	lock03      	242	not_alive	0	still	0	artefact	0	n	0	0        	 	0.0	0	116.160750299925	116.260743099963	0.0999928000383079
135295	100	225	stimuli/nonmovNat/shell/nmn_shell09.jpg          	1	3	1	nmn_shell09.jpg      	nonmovNat	5	shell     	32	shell09     	328	not_alive	0	still	0	natural 	1	n	0	0        	 	0.0	0	116.310753700091	116.410750200041	0.0999964999500662
135445	100	226	stimuli/movArt/train/ma_train09.jpg              	1	3	1	ma_train09.jpg       	movArt   	2	train     	34	train09     	348	not_alive	0	moves	1	artefact	0	n	0	0        	 	0.0	0	116.460756399902	116.560757699888	0.100001299986616
135595	100	227	stimuli/nonmovNat/crystal/nmn_crystal08.jpg      	1	3	1	nmn_crystal08.jpg    	nonmovNat	5	crystal   	10	crystal08   	107	not_alive	0	still	0	natural 	1	n	0	0        	 	0.0	0	116.610759000061	116.710766500095	0.100007500033826
135745	100	228	stimuli/plant2/palmtree/plant_palmtree02.jpg     	1	3	1	plant_palmtree02.jpg 	plant2   	7	palmtree  	27	palmtree02  	271	alive    	1	still	0	natural 	1	n	0	0        	 	0.0	0	116.760764200008	116.860767100006	0.100002899998799
135895	100	229	stimuli/animals/dog/animal_dog02.jpg             	1	3	1	animal_dog02.jpg     	animals  	0	dog       	11	dog02       	111	alive    	1	moves	1	natural 	1	n	0	0        	 	0.0	0	116.910772300093	117.010760399979	0.0999880998861045
136045	100	230	stimuli/movArt/bus/ma_bus02.jpg                  	1	3	1	ma_bus02.jpg         	movArt   	2	bus       	3	bus02       	31	not_alive	0	moves	1	artefact	0	n	0	0        	 	0.0	0	117.060779399937	117.160767799942	0.0999884000048041
136195	100	231	stimuli/plant2/fern/plant_fern07.jpg             	1	3	1	plant_fern07.jpg     	plant2   	7	fern      	14	fern07      	146	alive    	1	still	0	natural 	1	n	0	0        	 	0.0	0	117.210773400031	117.310767800082	0.0999944000504911
136345	100	232	stimuli/animals/eagle/animal_eagle01.jpg         	1	3	1	animal_eagle01.jpg   	animals  	0	eagle     	13	eagle01     	130	alive    	1	moves	1	natural 	1	n	0	0        	 	0.0	0	117.36079600011	117.460787700024	0.0999916999135166
136495	100	233	stimuli/animals2/bee/animal_bee02.jpg            	1	3	1	animal_bee02.jpg     	animals2 	1	bee       	0	bee02       	1	alive    	1	moves	1	natural 	1	n	0	0        	 	0.0	0	117.510784700047	117.610774500063	0.0999898000154644
136645	100	234	stimuli/animals2/pigeon/animal_pigeon02.jpg      	1	3	1	animal_pigeon02.jpg  	animals2 	1	pigeon    	28	pigeon02    	281	alive    	1	moves	1	natural 	1	n	0	0        	 	0.0	0	117.660801199963	117.760780500015	0.0999793000519276
136795	100	235	stimuli/movArt/boat/ma_boat08.jpg                	1	3	1	ma_boat08.jpg        	movArt   	2	boat      	2	boat08      	27	not_alive	0	moves	1	artefact	0	n	0	0        	 	0.0	0	117.810816199984	117.910782400053	0.099966200068593
136945	100	236	stimuli/nonmovNat/sand/nmn_sand10.jpg            	1	3	1	nmn_sand10.jpg       	nonmovNat	5	sand      	31	sand10      	319	not_alive	0	still	0	natural 	1	n	0	0        	 	0.0	0	117.96079250006	118.060797400074	0.100004900014028
137095	100	237	stimuli/movNat/waves/mn_waves05.jpg              	1	3	1	mn_waves05.jpg       	movNat   	3	waves     	38	waves05     	384	not_alive	0	moves	1	natural 	1	n	0	0        	 	0.0	0	118.110799300019	118.210790300043	0.0999910000246018
137245	100	238	stimuli/movArt/bus/ma_bus03.jpg                  	1	3	1	ma_bus03.jpg         	movArt   	2	bus       	3	bus03       	32	not_alive	0	moves	1	artefact	0	n	0	0        	 	0.0	0	118.260798600037	118.360793699976	0.0999950999394059
137395	100	239	stimuli/nonmovArt/bench/nma_bench01.jpg          	1	3	1	nma_bench01.jpg      	nonmovArt	4	bench     	1	bench01     	10	not_alive	0	still	0	artefact	0	n	0	0        	 	0.0	0	118.410810699919	118.510797200026	0.0999865001067519
145462	100	240	stimuli/nonmovNat/rock/nmn_rock06.jpg            	1	4	1	nmn_rock06.jpg       	nonmovNat	5	rock      	30	rock06      	305	not_alive	0	still	0	natural 	1	n	0	0        	 	0.0	0	126.477670599939	126.577660399955	0.0999898000154644
145612	100	241	stimuli/plant2/clover/plant_clover02.jpg         	1	4	1	plant_clover02.jpg   	plant2   	7	clover    	9	clover02    	91	alive    	1	still	0	natural 	1	n	0	0        	 	0.0	0	126.627674699994	126.727665300015	0.099990600021556
145762	100	242	stimuli/movArt/boat/ma_boat09.jpg                	1	4	1	ma_boat09.jpg        	movArt   	2	boat      	2	boat09      	28	not_alive	0	moves	1	artefact	0	n	0	0        	 	0.0	0	126.777673699893	126.87766940007	0.0999957001768053
145912	100	243	stimuli/plant/grass/plant_grass02.jpg            	1	4	1	plant_grass02.jpg    	plant    	6	grass     	17	grass02     	171	alive    	1	still	0	natural 	1	n	0	0        	 	0.0	0	126.927683500107	127.027701700106	0.100018199998885
146062	100	244	stimuli/plant2/fern/plant_fern01.jpg             	1	4	1	plant_fern01.jpg     	plant2   	7	fern      	14	fern01      	140	alive    	1	still	0	natural 	1	n	0	0        	 	0.0	0	127.077682399889	127.177692800062	0.100010400172323
146212	100	245	stimuli/animals/cat/animal_cat07.jpg             	1	4	1	animal_cat07.jpg     	animals  	0	cat       	6	cat07       	66	alive    	1	moves	1	natural 	1	n	0	0        	 	0.0	0	127.227698999923	127.327679600101	0.0999806001782417
146362	100	246	stimuli/animals2/lemur/animal_lemur02.jpg        	1	4	1	animal_lemur02.jpg   	animals2 	1	lemur     	23	lemur02     	231	alive    	1	moves	1	natural 	1	n	0	0        	 	0.0	0	127.377701699967	127.477684200043	0.099982500076294
146512	100	247	stimuli/plant/cactus/plant_cactus06.jpg          	1	4	1	plant_cactus06.jpg   	plant    	6	cactus    	4	cactus06    	45	alive    	1	still	0	natural 	1	n	0	0        	 	0.0	0	127.527732300106	127.627686900087	0.0999545999802649
146662	100	248	stimuli/nonmovArt/headphones/nma_headphones02.jpg	1	4	1	nma_headphones02.jpg 	nonmovArt	4	headphones	18	headphones02	181	not_alive	0	still	0	artefact	0	n	0	0        	 	0.0	0	127.677711900091	127.777702700114	0.0999908000230789
146812	100	249	stimuli/movArt/train/ma_train10.jpg              	1	4	1	ma_train10.jpg       	movArt   	2	train     	34	train10     	349	not_alive	0	moves	1	artefact	0	n	0	0        	 	0.0	0	127.827700499911	127.927706700051	0.100006200140342
146962	100	250	stimuli/animals/dolphin/animal_dolphin08.jpg     	1	4	1	animal_dolphin08.jpg 	animals  	0	dolphin   	12	dolphin08   	127	alive    	1	moves	1	natural 	1	n	0	0        	 	0.0	0	127.977700999938	128.077696300112	0.0999953001737595
147112	100	251	stimuli/nonmovNat/sand/nmn_sand01.jpg            	1	4	1	nmn_sand01.jpg       	nonmovNat	5	sand      	31	sand01      	310	not_alive	0	still	0	natural 	1	n	0	0        	 	0.0	0	128.127727600047	128.227700900054	0.0999733000062406
147262	100	252	stimuli/movNat/waves/mn_waves04.jpg              	1	4	1	mn_waves04.jpg       	movNat   	3	waves     	38	waves04     	383	not_alive	0	moves	1	natural 	1	n	0	0        	 	0.0	0	128.277739600046	128.377704600105	0.0999650000594556
147412	100	253	stimuli/movArt/helicopter/ma_helicopter02.jpg    	1	4	1	ma_helicopter02.jpg  	movArt   	2	helicopter	19	helicopter02	191	not_alive	0	moves	1	artefact	0	n	0	0        	 	0.0	0	128.427716499893	128.527711299947	0.0999948000535369
147562	100	254	stimuli/animals2/tiger/animal_tiger05.jpg        	1	4	1	animal_tiger05.jpg   	animals2 	1	tiger     	33	tiger05     	334	alive    	1	moves	1	natural 	1	n	0	0        	 	0.0	0	128.577721500071	128.677718000021	0.0999964999500662
147712	100	255	stimuli/animals/eagle/animal_eagle08.jpg         	1	4	1	animal_eagle08.jpg   	animals  	0	eagle     	13	eagle08     	137	alive    	1	moves	1	natural 	1	n	1	0        	 	0.0	0	128.72772309999	128.827715300024	0.0999922000337392
147862	100	256	stimuli/nonmovArt/lock/nma_lock02.jpg            	1	4	1	nma_lock02.jpg       	nonmovArt	4	lock      	24	lock02      	241	not_alive	0	still	0	artefact	0	n	0	1        	f	0.242018399992958	1	128.877744599944	128.977717499947	0.0999729000031948
148012	100	257	stimuli/plant/tree/plant_tree08.jpg              	1	4	1	plant_tree08.jpg     	plant    	6	tree      	35	tree08      	357	alive    	1	still	0	natural 	1	n	0	0        	 	0.0	0	129.02774489997	129.127724499907	0.0999795999377966
148162	100	258	stimuli/movArt/helicopter/ma_helicopter10.jpg    	1	4	1	ma_helicopter10.jpg  	movArt   	2	helicopter	19	helicopter10	199	not_alive	0	moves	1	artefact	0	n	0	0        	 	0.0	0	129.17773399991	129.277727399953	0.0999934000428766
148312	100	259	stimuli/plant/cactus/plant_cactus08.jpg          	1	4	1	plant_cactus08.jpg   	plant    	6	cactus    	4	cactus08    	47	alive    	1	still	0	natural 	1	n	0	0        	 	0.0	0	129.327736099949	129.427729200106	0.0999931001570076
148462	100	260	stimuli/animals2/whale/animal_whale10.jpg        	1	4	1	animal_whale10.jpg   	animals2 	1	whale     	39	whale10     	399	alive    	1	moves	1	natural 	1	n	0	0        	 	0.0	0	129.47775369999	129.577735299943	0.0999815999530256
148612	100	261	stimuli/movNat/waves/mn_waves02.jpg              	1	4	1	mn_waves02.jpg       	movNat   	3	waves     	38	waves02     	381	not_alive	0	moves	1	natural 	1	n	0	0        	 	0.0	0	129.627756800037	129.727740200004	0.0999833999667317
148762	100	262	stimuli/nonmovArt/mug/nma_mug08.jpg              	1	4	1	nma_mug08.jpg        	nonmovArt	4	mug       	26	mug08       	267	not_alive	0	still	0	artefact	0	n	0	0        	 	0.0	0	129.777751399903	129.877739999909	0.099988600006327
148912	100	263	stimuli/plant/vine/plant_vine01.jpg              	1	4	1	plant_vine01.jpg     	plant    	6	vine      	36	vine01      	360	alive    	1	still	0	natural 	1	n	0	0        	 	0.0	0	129.92775240005	130.027745000087	0.099992600036785
149062	100	264	stimuli/plant2/clover/plant_clover09.jpg         	1	4	1	plant_clover09.jpg   	plant2   	7	clover    	9	clover09    	98	alive    	1	still	0	natural 	1	n	0	0        	 	0.0	0	130.077755599981	130.1777611	0.100005500018597
149212	100	265	stimuli/animals2/lemur/animal_lemur04.jpg        	1	4	1	animal_lemur04.jpg   	animals2 	1	lemur     	23	lemur04     	233	alive    	1	moves	1	natural 	1	n	1	0        	 	0.0	0	130.227784400107	130.327764099929	0.0999796998221427
149362	100	266	stimuli/nonmovArt/headphones/nma_headphones01.jpg	1	4	1	nma_headphones01.jpg 	nonmovArt	4	headphones	18	headphones01	180	not_alive	0	still	0	artefact	0	n	0	1        	f	0.258671799907461	1	130.377774399938	130.477762599941	0.0999882000032812
149512	100	267	stimuli/movArt/car/ma_car09.jpg                  	1	4	1	ma_car09.jpg         	movArt   	2	car       	5	car09       	58	not_alive	0	moves	1	artefact	0	n	0	0        	 	0.0	0	130.527779900003	130.627775799949	0.0999958999454975
149662	100	268	stimuli/movNat/hotspring/mn_hotspring05.jpg      	1	4	1	mn_hotspring05.jpg   	movNat   	3	hotspring 	21	hotspring05 	214	not_alive	0	moves	1	natural 	1	n	0	0        	 	0.0	0	130.677783099934	130.777775200084	0.0999921001493931
149812	100	269	stimuli/plant2/clover/plant_clover07.jpg         	1	4	1	plant_clover07.jpg   	plant2   	7	clover    	9	clover07    	96	alive    	1	still	0	natural 	1	n	0	0        	 	0.0	0	130.827788300114	130.927778499899	0.0999901997856796
149962	100	270	stimuli/movNat/waterfall/mn_waterfall01.jpg      	1	4	1	mn_waterfall01.jpg   	movNat   	3	waterfall 	37	waterfall01 	370	not_alive	0	moves	1	natural 	1	n	0	0        	 	0.0	0	130.97778899991	131.077789099887	0.100000099977478
150112	100	271	stimuli/plant2/lemontree/plant_lemontree02.jpg   	1	4	1	plant_lemontree02.jpg	plant2   	7	lemontree 	22	lemontree02 	221	alive    	1	still	0	natural 	1	n	0	0        	 	0.0	0	131.127793400083	131.227810800076	0.100017399992794
150262	100	272	stimuli/animals/dolphin/animal_dolphin10.jpg     	1	4	1	animal_dolphin10.jpg 	animals  	0	dolphin   	12	dolphin10   	129	alive    	1	moves	1	natural 	1	n	0	0        	 	0.0	0	131.277789100073	131.3777999999	0.100010899826884
150412	100	273	stimuli/animals2/whale/animal_whale01.jpg        	1	4	1	animal_whale01.jpg   	animals2 	1	whale     	39	whale01     	390	alive    	1	moves	1	natural 	1	n	0	0        	 	0.0	0	131.427812299924	131.527790300082	0.099978000158444
150562	100	274	stimuli/plant/flower/plant_flower06.jpg          	1	4	1	plant_flower06.jpg   	plant    	6	flower    	16	flower06    	165	alive    	1	still	0	natural 	1	n	0	0        	 	0.0	0	131.577798000071	131.677805799991	0.100007799919695
150712	100	275	stimuli/animals2/tiger/animal_tiger09.jpg        	1	4	1	animal_tiger09.jpg   	animals2 	1	tiger     	33	tiger09     	338	alive    	1	moves	1	natural 	1	n	0	0        	 	0.0	0	131.727816599887	131.827795000048	0.0999784001614898
150862	100	276	stimuli/nonmovNat/sand/nmn_sand04.jpg            	1	4	1	nmn_sand04.jpg       	nonmovNat	5	sand      	31	sand04      	313	not_alive	0	still	0	natural 	1	n	0	0        	 	0.0	0	131.877821499947	131.977807000047	0.0999855000991374
151012	100	277	stimuli/nonmovArt/mug/nma_mug05.jpg              	1	4	1	nma_mug05.jpg        	nonmovArt	4	mug       	26	mug05       	264	not_alive	0	still	0	artefact	0	n	0	0        	 	0.0	0	132.02782660001	132.127801399911	0.099974799901247
151162	100	278	stimuli/plant/flower/plant_flower02.jpg          	1	4	1	plant_flower02.jpg   	plant    	6	flower    	16	flower02    	161	alive    	1	still	0	natural 	1	n	0	0        	 	0.0	0	132.177815200062	132.277822900098	0.100007700035349
151312	100	279	stimuli/movArt/train/ma_train02.jpg              	1	4	1	ma_train02.jpg       	movArt   	2	train     	34	train02     	341	not_alive	0	moves	1	artefact	0	n	0	0        	 	0.0	0	132.327820899896	132.427830700064	0.100009800167754
151462	100	280	stimuli/animals/eagle/animal_eagle06.jpg         	1	4	1	animal_eagle06.jpg   	animals  	0	eagle     	13	eagle06     	135	alive    	1	moves	1	natural 	1	n	0	0        	 	0.0	0	132.477818599902	132.577811500058	0.0999929001554847
151612	100	281	stimuli/animals/cat/animal_cat09.jpg             	1	4	1	animal_cat09.jpg     	animals  	0	cat       	6	cat09       	68	alive    	1	moves	1	natural 	1	n	0	0        	 	0.0	0	132.627828099998	132.727833099896	0.100004999898374
151762	100	282	stimuli/animals2/bee/animal_bee03.jpg            	1	4	1	animal_bee03.jpg     	animals2 	1	bee       	0	bee03       	2	alive    	1	moves	1	natural 	1	n	0	0        	 	0.0	0	132.777825800003	132.877819400048	0.0999936000443995
151912	100	283	stimuli/animals2/lemur/animal_lemur01.jpg        	1	4	1	animal_lemur01.jpg   	animals2 	1	lemur     	23	lemur01     	230	alive    	1	moves	1	natural 	1	n	0	0        	 	0.0	0	132.9278376	133.027820900083	0.0999833000823855
152062	100	284	stimuli/movArt/car/ma_car08.jpg                  	1	4	1	ma_car08.jpg         	movArt   	2	car       	5	car08       	57	not_alive	0	moves	1	artefact	0	n	0	0        	 	0.0	0	133.077855099924	133.177843800047	0.0999887001235038
152212	100	285	stimuli/nonmovArt/bench/nma_bench04.jpg          	1	4	1	nma_bench04.jpg      	nonmovArt	4	bench     	1	bench04     	13	not_alive	0	still	0	artefact	0	n	0	0        	 	0.0	0	133.227856999962	133.327829099959	0.0999720999971032
152362	100	286	stimuli/animals2/bee/animal_bee04.jpg            	1	4	1	animal_bee04.jpg     	animals2 	1	bee       	0	bee04       	3	alive    	1	moves	1	natural 	1	n	0	0        	 	0.0	0	133.377840399975	133.477851599921	0.100011199945584
152512	100	287	stimuli/animals2/whale/animal_whale09.jpg        	1	4	1	animal_whale09.jpg   	animals2 	1	whale     	39	whale09     	398	alive    	1	moves	1	natural 	1	n	0	0        	 	0.0	0	133.527845999924	133.627865999937	0.100020000012591
152662	100	288	stimuli/nonmovNat/shell/nmn_shell03.jpg          	1	4	1	nmn_shell03.jpg      	nonmovNat	5	shell     	32	shell03     	322	not_alive	0	still	0	natural 	1	n	0	0        	 	0.0	0	133.677865199978	133.777840200113	0.0999750001356006
152812	100	289	stimuli/nonmovNat/rock/nmn_rock02.jpg            	1	4	1	nmn_rock02.jpg       	nonmovNat	5	rock      	30	rock02      	301	not_alive	0	still	0	natural 	1	n	0	0        	 	0.0	0	133.827852099901	133.927861900069	0.100009800167754
152962	100	290	stimuli/movNat/fire/mn_fire07.jpg                	1	4	1	mn_fire07.jpg        	movNat   	3	fire      	15	fire07      	156	not_alive	0	moves	1	natural 	1	n	0	0        	 	0.0	0	133.977866800036	134.077851299895	0.0999844998586923
153112	100	291	stimuli/animals/dog/animal_dog05.jpg             	1	4	1	animal_dog05.jpg     	animals  	0	dog       	11	dog05       	114	alive    	1	moves	1	natural 	1	n	0	0        	 	0.0	0	134.127878000028	134.227868299931	0.0999902999028564
153262	100	292	stimuli/movNat/hotspring/mn_hotspring02.jpg      	1	4	1	mn_hotspring02.jpg   	movNat   	3	hotspring 	21	hotspring02 	211	not_alive	0	moves	1	natural 	1	n	0	0        	 	0.0	0	134.277864800068	134.377855200088	0.0999904000200331
153412	100	293	stimuli/movNat/river/mn_river08.jpg              	1	4	1	mn_river08.jpg       	movNat   	3	river     	29	river08     	297	not_alive	0	moves	1	natural 	1	n	0	0        	 	0.0	0	134.427865599981	134.527877500048	0.100011900067329
153562	100	294	stimuli/animals/horse/animal_horse01.jpg         	1	4	1	animal_horse01.jpg   	animals  	0	horse     	20	horse01     	200	alive    	1	moves	1	natural 	1	n	0	0        	 	0.0	0	134.577870999929	134.677864999976	0.0999940000474453
153712	100	295	stimuli/nonmovArt/clothespeg/nma_clothespeg04.jpg	1	4	1	nma_clothespeg04.jpg 	nonmovArt	4	clothespeg	8	clothespeg04	83	not_alive	0	still	0	artefact	0	n	0	0        	 	0.0	0	134.727874600096	134.827881299891	0.100006699794903
153862	100	296	stimuli/animals/horse/animal_horse06.jpg         	1	4	1	animal_horse06.jpg   	animals  	0	horse     	20	horse06     	205	alive    	1	moves	1	natural 	1	n	0	0        	 	0.0	0	134.877878800035	134.97788650007	0.100007700035349
154012	100	297	stimuli/nonmovNat/rock/nmn_rock09.jpg            	1	4	1	nmn_rock09.jpg       	nonmovNat	5	rock      	30	rock09      	308	not_alive	0	still	0	natural 	1	n	0	0        	 	0.0	0	135.027895400068	135.127874299884	0.0999788998160511
154162	100	298	stimuli/movArt/bus/ma_bus01.jpg                  	1	4	1	ma_bus01.jpg         	movArt   	2	bus       	3	bus01       	30	not_alive	0	moves	1	artefact	0	n	0	0        	 	0.0	0	135.177902200026	135.277879199944	0.0999769999179989
154312	100	299	stimuli/plant2/palmtree/plant_palmtree10.jpg     	1	4	1	plant_palmtree10.jpg 	plant2   	7	palmtree  	27	palmtree10  	279	alive    	1	still	0	natural 	1	n	0	0        	 	0.0	0	135.327906799968	135.427897700109	0.0999909001402557
154462	100	300	stimuli/nonmovArt/bench/nma_bench03.jpg          	1	4	1	nma_bench03.jpg      	nonmovArt	4	bench     	1	bench03     	12	not_alive	0	still	0	artefact	0	n	0	0        	 	0.0	0	135.477908599889	135.577899500029	0.0999909001402557
154612	100	301	stimuli/animals/dolphin/animal_dolphin05.jpg     	1	4	1	animal_dolphin05.jpg 	animals  	0	dolphin   	12	dolphin05   	124	alive    	1	moves	1	natural 	1	n	0	0        	 	0.0	0	135.627898199949	135.7279079	0.100009700050578
154762	100	302	stimuli/nonmovNat/shell/nmn_shell05.jpg          	1	4	1	nmn_shell05.jpg      	nonmovNat	5	shell     	32	shell05     	324	not_alive	0	still	0	natural 	1	n	0	0        	 	0.0	0	135.777930499986	135.877905200003	0.0999747000169009
154912	100	303	stimuli/plant/cactus/plant_cactus05.jpg          	1	4	1	plant_cactus05.jpg   	plant    	6	cactus    	4	cactus05    	44	alive    	1	still	0	natural 	1	n	0	0        	 	0.0	0	135.927919900045	136.027909900062	0.0999900000169873
155062	100	304	stimuli/animals2/bee/animal_bee08.jpg            	1	4	1	animal_bee08.jpg     	animals2 	1	bee       	0	bee08       	7	alive    	1	moves	1	natural 	1	n	1	0        	 	0.0	0	136.077918899944	136.177916799905	0.0999978999607265
155212	100	305	stimuli/animals/eagle/animal_eagle09.jpg         	1	4	1	animal_eagle09.jpg   	animals  	0	eagle     	13	eagle09     	138	alive    	1	moves	1	natural 	1	n	0	1        	f	0.241975800134242	1	136.227911999915	136.327905399958	0.0999934000428766
155362	100	306	stimuli/movArt/car/ma_car03.jpg                  	1	4	1	ma_car03.jpg         	movArt   	2	car       	5	car03       	52	not_alive	0	moves	1	artefact	0	n	0	0        	 	0.0	0	136.377907099901	136.477909399895	0.10000229999423
155512	100	307	stimuli/plant2/moss/plant_moss05.jpg             	1	4	1	plant_moss05.jpg     	plant2   	7	moss      	25	moss05      	254	alive    	1	still	0	natural 	1	n	0	0        	 	0.0	0	136.527917099884	136.627924399916	0.100007300032303
155662	100	308	stimuli/movNat/hotspring/mn_hotspring03.jpg      	1	4	1	mn_hotspring03.jpg   	movNat   	3	hotspring 	21	hotspring03 	212	not_alive	0	moves	1	natural 	1	n	0	0        	 	0.0	0	136.677921500057	136.777958800085	0.100037300027907
155812	100	309	stimuli/movArt/bus/ma_bus04.jpg                  	1	4	1	ma_bus04.jpg         	movArt   	2	bus       	3	bus04       	33	not_alive	0	moves	1	artefact	0	n	0	0        	 	0.0	0	136.827926199883	136.92793460004	0.100008400157094
155962	100	310	stimuli/animals2/tiger/animal_tiger04.jpg        	1	4	1	animal_tiger04.jpg   	animals2 	1	tiger     	33	tiger04     	333	alive    	1	moves	1	natural 	1	n	0	0        	 	0.0	0	136.97794459993	137.077938999981	0.0999944000504911
156112	100	311	stimuli/movArt/boat/ma_boat03.jpg                	1	4	1	ma_boat03.jpg        	movArt   	2	boat      	2	boat03      	22	not_alive	0	moves	1	artefact	0	n	0	0        	 	0.0	0	137.127952300012	137.22794370004	0.0999914000276476
156262	100	312	stimuli/nonmovNat/crystal/nmn_crystal02.jpg      	1	4	1	nmn_crystal02.jpg    	nonmovNat	5	crystal   	10	crystal02   	101	not_alive	0	still	0	natural 	1	n	0	0        	 	0.0	0	137.27793630003	137.377946899971	0.100010599941015
156412	100	313	stimuli/nonmovNat/cliff/nmn_cliff01.jpg          	1	4	1	nmn_cliff01.jpg      	nonmovNat	5	cliff     	7	cliff01     	70	not_alive	0	still	0	natural 	1	n	0	0        	 	0.0	0	137.427938899957	137.527950000018	0.100011100061238
156562	100	314	stimuli/plant/tree/plant_tree06.jpg              	1	4	1	plant_tree06.jpg     	plant    	6	tree      	35	tree06      	355	alive    	1	still	0	natural 	1	n	0	0        	 	0.0	0	137.577959700022	137.677965499926	0.100005799904466
156712	100	315	stimuli/animals2/pigeon/animal_pigeon03.jpg      	1	4	1	animal_pigeon03.jpg  	animals2 	1	pigeon    	28	pigeon03    	282	alive    	1	moves	1	natural 	1	n	0	0        	 	0.0	0	137.727954200003	137.827942400007	0.0999882000032812
156862	100	316	stimuli/nonmovArt/lock/nma_lock05.jpg            	1	4	1	nma_lock05.jpg       	nonmovArt	4	lock      	24	lock05      	244	not_alive	0	still	0	artefact	0	n	0	0        	 	0.0	0	137.877958900062	137.97797170002	0.100012799957767
157012	100	317	stimuli/animals2/pigeon/animal_pigeon01.jpg      	1	4	1	animal_pigeon01.jpg  	animals2 	1	pigeon    	28	pigeon01    	280	alive    	1	moves	1	natural 	1	n	0	0        	 	0.0	0	138.027955699945	138.127962799976	0.10000710003078
157162	100	318	stimuli/nonmovNat/cliff/nmn_cliff02.jpg          	1	4	1	nmn_cliff02.jpg      	nonmovNat	5	cliff     	7	cliff02     	71	not_alive	0	still	0	natural 	1	n	0	0        	 	0.0	0	138.177974999882	138.277968799928	0.0999938000459224
157312	100	319	stimuli/nonmovNat/crystal/nmn_crystal10.jpg      	1	4	1	nmn_crystal10.jpg    	nonmovNat	5	crystal   	10	crystal10   	109	not_alive	0	still	0	natural 	1	n	0	0        	 	0.0	0	138.327968799975	138.42795719998	0.0999884000048041
159879	100	320	stimuli/plant2/lemontree/plant_lemontree04.jpg   	1	5	1	plant_lemontree04.jpg	plant2   	7	lemontree 	22	lemontree04 	223	alive    	1	still	0	natural 	1	n	0	0        	 	0.0	0	140.894685300067	140.994674399961	0.099989099893719
160029	100	321	stimuli/plant/vine/plant_vine08.jpg              	1	5	1	plant_vine08.jpg     	plant    	6	vine      	36	vine08      	367	alive    	1	still	0	natural 	1	n	0	0        	 	0.0	0	141.044684299966	141.144677100005	0.0999928000383079
160179	100	322	stimuli/plant2/moss/plant_moss03.jpg             	1	5	1	plant_moss03.jpg     	plant2   	7	moss      	25	moss03      	252	alive    	1	still	0	natural 	1	n	0	0        	 	0.0	0	141.194686899893	141.294680200052	0.0999933001585305
160329	100	323	stimuli/movNat/river/mn_river06.jpg              	1	5	1	mn_river06.jpg       	movNat   	3	river     	29	river06     	295	not_alive	0	moves	1	natural 	1	n	0	0        	 	0.0	0	141.344689799938	141.444682399975	0.099992600036785
160479	100	324	stimuli/animals/dog/animal_dog10.jpg             	1	5	1	animal_dog10.jpg     	animals  	0	dog       	11	dog10       	119	alive    	1	moves	1	natural 	1	n	0	0        	 	0.0	0	141.494695900008	141.594688500045	0.099992600036785
160629	100	325	stimuli/plant2/palmtree/plant_palmtree09.jpg     	1	5	1	plant_palmtree09.jpg 	plant2   	7	palmtree  	27	palmtree09  	278	alive    	1	still	0	natural 	1	n	0	0        	 	0.0	0	141.64469960006	141.744694200112	0.099994600052014
160779	100	326	stimuli/movArt/train/ma_train06.jpg              	1	5	1	ma_train06.jpg       	movArt   	2	train     	34	train06     	345	not_alive	0	moves	1	artefact	0	n	0	0        	 	0.0	0	141.794703100109	141.894694899907	0.0999917997978628
160929	100	327	stimuli/movNat/waves/mn_waves06.jpg              	1	5	1	mn_waves06.jpg       	movNat   	3	waves     	38	waves06     	385	not_alive	0	moves	1	natural 	1	n	0	0        	 	0.0	0	141.944705500035	142.044699500082	0.0999940000474453
161079	100	328	stimuli/nonmovArt/lock/nma_lock02.jpg            	1	5	1	nma_lock02.jpg       	nonmovArt	4	lock      	24	lock02      	241	not_alive	0	still	0	artefact	0	n	0	0        	 	0.0	0	142.094712099992	142.194721200038	0.100009100046009
161229	100	329	stimuli/nonmovArt/bench/nma_bench02.jpg          	1	5	1	nma_bench02.jpg      	nonmovArt	4	bench     	1	bench02     	11	not_alive	0	still	0	artefact	0	n	0	0        	 	0.0	0	142.244715099921	142.344706099946	0.0999910000246018
161379	100	330	stimuli/nonmovNat/sand/nmn_sand02.jpg            	1	5	1	nmn_sand02.jpg       	nonmovNat	5	sand      	31	sand02      	311	not_alive	0	still	0	natural 	1	n	0	0        	 	0.0	0	142.394718799973	142.494708500104	0.0999897001311183
161529	100	331	stimuli/plant/flower/plant_flower07.jpg          	1	5	1	plant_flower07.jpg   	plant    	6	flower    	16	flower07    	166	alive    	1	still	0	natural 	1	n	0	0        	 	0.0	0	142.5447213999	142.644739399897	0.100017999997362
161679	100	332	stimuli/movArt/boat/ma_boat03.jpg                	1	5	1	ma_boat03.jpg        	movArt   	2	boat      	2	boat03      	22	not_alive	0	moves	1	artefact	0	n	0	0        	 	0.0	0	142.694726200076	142.794718899997	0.0999926999211311
161829	100	333	stimuli/movNat/fire/mn_fire02.jpg                	1	5	1	mn_fire02.jpg        	movNat   	3	fire      	15	fire02      	151	not_alive	0	moves	1	natural 	1	n	0	0        	 	0.0	0	142.844742800109	142.944740100065	0.0999972999561578
161979	100	334	stimuli/movArt/helicopter/ma_helicopter06.jpg    	1	5	1	ma_helicopter06.jpg  	movArt   	2	helicopter	19	helicopter06	195	not_alive	0	moves	1	artefact	0	n	0	0        	 	0.0	0	142.994731500046	143.094725500094	0.0999940000474453
162129	100	335	stimuli/plant2/moss/plant_moss03.jpg             	1	5	1	plant_moss03.jpg     	plant2   	7	moss      	25	moss03      	252	alive    	1	still	0	natural 	1	n	0	0        	 	0.0	0	143.144738700008	143.24472810002	0.0999894000124186
162279	100	336	stimuli/animals/horse/animal_horse07.jpg         	1	5	1	animal_horse07.jpg   	animals  	0	horse     	20	horse07     	206	alive    	1	moves	1	natural 	1	n	0	0        	 	0.0	0	143.294750300003	143.39473280008	0.099982500076294
162429	100	337	stimuli/plant/vine/plant_vine07.jpg              	1	5	1	plant_vine07.jpg     	plant    	6	vine      	36	vine07      	366	alive    	1	still	0	natural 	1	n	0	0        	 	0.0	0	143.44474159996	143.544734800002	0.0999932000413537
162579	100	338	stimuli/movArt/bus/ma_bus09.jpg                  	1	5	1	ma_bus09.jpg         	movArt   	2	bus       	3	bus09       	38	not_alive	0	moves	1	artefact	0	n	0	0        	 	0.0	0	143.594761099899	143.694741199957	0.0999801000580192
162729	100	339	stimuli/plant/grass/plant_grass07.jpg            	1	5	1	plant_grass07.jpg    	plant    	6	grass     	17	grass07     	176	alive    	1	still	0	natural 	1	n	0	0        	 	0.0	0	143.74474860006	143.844759499887	0.100010899826884
162879	100	340	stimuli/animals2/pigeon/animal_pigeon01.jpg      	1	5	1	animal_pigeon01.jpg  	animals2 	1	pigeon    	28	pigeon01    	280	alive    	1	moves	1	natural 	1	n	0	0        	 	0.0	0	143.894754899899	143.994747600053	0.0999927001539618
163029	100	341	stimuli/plant2/fern/plant_fern06.jpg             	1	5	1	plant_fern06.jpg     	plant2   	7	fern      	14	fern06      	145	alive    	1	still	0	natural 	1	n	0	0        	 	0.0	0	144.044756399933	144.144749700092	0.0999933001585305
163179	100	342	stimuli/movNat/fire/mn_fire10.jpg                	1	5	1	mn_fire10.jpg        	movNat   	3	fire      	15	fire10      	159	not_alive	0	moves	1	natural 	1	n	0	0        	 	0.0	0	144.194760499988	144.294752700021	0.0999922000337392
163329	100	343	stimuli/nonmovNat/cliff/nmn_cliff09.jpg          	1	5	1	nmn_cliff09.jpg      	nonmovNat	5	cliff     	7	cliff09     	78	not_alive	0	still	0	natural 	1	n	0	0        	 	0.0	0	144.344763899921	144.44475689996	0.0999930000398308
163479	100	344	stimuli/plant2/fern/plant_fern01.jpg             	1	5	1	plant_fern01.jpg     	plant2   	7	fern      	14	fern01      	140	alive    	1	still	0	natural 	1	n	0	0        	 	0.0	0	144.494768100092	144.594760899898	0.0999927998054773
163629	100	345	stimuli/plant/grass/plant_grass09.jpg            	1	5	1	plant_grass09.jpg    	plant    	6	grass     	17	grass09     	178	alive    	1	still	0	natural 	1	n	0	0        	 	0.0	0	144.644774399931	144.744765399955	0.0999910000246018
163779	100	346	stimuli/nonmovNat/crystal/nmn_crystal10.jpg      	1	5	1	nmn_crystal10.jpg    	nonmovNat	5	crystal   	10	crystal10   	109	not_alive	0	still	0	natural 	1	n	0	0        	 	0.0	0	144.794774800073	144.894770700019	0.0999958999454975
163929	100	347	stimuli/nonmovArt/mug/nma_mug05.jpg              	1	5	1	nma_mug05.jpg        	nonmovArt	4	mug       	26	mug05       	264	not_alive	0	still	0	artefact	0	n	0	0        	 	0.0	0	144.944778800011	145.044771200046	0.0999924000352621
164079	100	348	stimuli/movNat/waterfall/mn_waterfall09.jpg      	1	5	1	mn_waterfall09.jpg   	movNat   	3	waterfall 	37	waterfall09 	378	not_alive	0	moves	1	natural 	1	n	0	0        	 	0.0	0	145.094785100082	145.194777600002	0.0999924999196082
164229	100	349	stimuli/nonmovArt/headphones/nma_headphones03.jpg	1	5	1	nma_headphones03.jpg 	nonmovArt	4	headphones	18	headphones03	182	not_alive	0	still	0	artefact	0	n	0	0        	 	0.0	0	145.244785499992	145.344777900027	0.0999924000352621
164379	100	350	stimuli/plant2/lemontree/plant_lemontree10.jpg   	1	5	1	plant_lemontree10.jpg	plant2   	7	lemontree 	22	lemontree10 	229	alive    	1	still	0	natural 	1	n	0	0        	 	0.0	0	145.394788400037	145.494809000054	0.10002060001716
164529	100	351	stimuli/plant2/palmtree/plant_palmtree05.jpg     	1	5	1	plant_palmtree05.jpg 	plant2   	7	palmtree  	27	palmtree05  	274	alive    	1	still	0	natural 	1	n	0	1        	f	0.0	0	145.544793700101	145.644822200062	0.100028499960899
164679	100	352	stimuli/animals/cat/animal_cat05.jpg             	1	5	1	animal_cat05.jpg     	animals  	0	cat       	6	cat05       	64	alive    	1	moves	1	natural 	1	n	0	0        	 	0.0	0	145.694813400041	145.794790500077	0.0999771000351757
164829	100	353	stimuli/movNat/river/mn_river01.jpg              	1	5	1	mn_river01.jpg       	movNat   	3	river     	29	river01     	290	not_alive	0	moves	1	natural 	1	n	0	0        	 	0.0	0	145.844820400001	145.944795799907	0.0999753999058157
164979	100	354	stimuli/animals/dog/animal_dog05.jpg             	1	5	1	animal_dog05.jpg     	animals  	0	dog       	11	dog05       	114	alive    	1	moves	1	natural 	1	n	0	0        	 	0.0	0	145.994805200025	146.094816500088	0.100011300062761
165129	100	355	stimuli/nonmovNat/shell/nmn_shell05.jpg          	1	5	1	nmn_shell05.jpg      	nonmovNat	5	shell     	32	shell05     	324	not_alive	0	still	0	natural 	1	n	0	1        	f	0.0	0	146.144829500001	146.244802200003	0.0999727000016719
165279	100	356	stimuli/nonmovArt/clothespeg/nma_clothespeg08.jpg	1	5	1	nma_clothespeg08.jpg 	nonmovArt	4	clothespeg	8	clothespeg08	87	not_alive	0	still	0	artefact	0	n	0	0        	 	0.0	0	146.294814999914	146.39480619994	0.0999912000261247
165429	100	357	stimuli/movNat/waterfall/mn_waterfall05.jpg      	1	5	1	mn_waterfall05.jpg   	movNat   	3	waterfall 	37	waterfall05 	374	not_alive	0	moves	1	natural 	1	n	0	0        	 	0.0	0	146.444817099953	146.544824399985	0.100007300032303
165579	100	358	stimuli/plant/tree/plant_tree07.jpg              	1	5	1	plant_tree07.jpg     	plant    	6	tree      	35	tree07      	356	alive    	1	still	0	natural 	1	n	0	1        	f	0.0	0	146.594819900114	146.694811200025	0.0999912999104708
165729	100	359	stimuli/nonmovArt/clothespeg/nma_clothespeg04.jpg	1	5	1	nma_clothespeg04.jpg 	nonmovArt	4	clothespeg	8	clothespeg04	83	not_alive	0	still	0	artefact	0	n	0	0        	 	0.0	0	146.744824500056	146.84481619997	0.0999916999135166
165879	100	360	stimuli/nonmovNat/cliff/nmn_cliff01.jpg          	1	5	1	nmn_cliff01.jpg      	nonmovNat	5	cliff     	7	cliff01     	70	not_alive	0	still	0	natural 	1	n	0	0        	 	0.0	0	146.89482669998	146.994838899933	0.100012199953198
166029	100	361	stimuli/animals2/whale/animal_whale08.jpg        	1	5	1	animal_whale08.jpg   	animals2 	1	whale     	39	whale08     	397	alive    	1	moves	1	natural 	1	n	0	0        	 	0.0	0	147.04484950006	147.144834900042	0.0999853999819606
166179	100	362	stimuli/animals2/whale/animal_whale03.jpg        	1	5	1	animal_whale03.jpg   	animals2 	1	whale     	39	whale03     	392	alive    	1	moves	1	natural 	1	n	0	0        	 	0.0	0	147.194872400025	147.294847999932	0.0999755999073386
166329	100	363	stimuli/nonmovNat/crystal/nmn_crystal05.jpg      	1	5	1	nmn_crystal05.jpg    	nonmovNat	5	crystal   	10	crystal05   	104	not_alive	0	still	0	natural 	1	n	0	0        	 	0.0	0	147.344848999986	147.44486779999	0.100018800003454
166479	100	364	stimuli/nonmovArt/mug/nma_mug06.jpg              	1	5	1	nma_mug06.jpg        	nonmovArt	4	mug       	26	mug06       	265	not_alive	0	still	0	artefact	0	n	0	0        	 	0.0	0	147.494869299931	147.594860899961	0.0999916000291705
166629	100	365	stimuli/animals/cat/animal_cat06.jpg             	1	5	1	animal_cat06.jpg     	animals  	0	cat       	6	cat06       	65	alive    	1	moves	1	natural 	1	n	0	0        	 	0.0	0	147.644879099913	147.744867200032	0.0999881001189351
166779	100	366	stimuli/movNat/waterfall/mn_waterfall06.jpg      	1	5	1	mn_waterfall06.jpg   	movNat   	3	waterfall 	37	waterfall06 	375	not_alive	0	moves	1	natural 	1	n	1	0        	 	0.0	0	147.794879500056	147.894869799959	0.0999902999028564
166929	100	367	stimuli/animals2/bee/animal_bee01.jpg            	1	5	1	animal_bee01.jpg     	animals2 	1	bee       	0	bee01       	0	alive    	1	moves	1	natural 	1	n	0	1        	f	0.250157099915668	1	147.944872600026	148.044857499888	0.0999848998617381
167079	100	368	stimuli/movArt/car/ma_car02.jpg                  	1	5	1	ma_car02.jpg         	movArt   	2	car       	5	car02       	51	not_alive	0	moves	1	artefact	0	n	0	0        	 	0.0	0	148.094881499885	148.194878699956	0.0999972000718117
167229	100	369	stimuli/nonmovArt/headphones/nma_headphones07.jpg	1	5	1	nma_headphones07.jpg 	nonmovArt	4	headphones	18	headphones07	186	not_alive	0	still	0	artefact	0	n	0	0        	 	0.0	0	148.244881500024	148.344884400023	0.100002899998799
167379	100	370	stimuli/nonmovArt/bench/nma_bench05.jpg          	1	5	1	nma_bench05.jpg      	nonmovArt	4	bench     	1	bench05     	14	not_alive	0	still	0	artefact	0	n	0	0        	 	0.0	0	148.394881200045	148.494869000046	0.0999878000002354
167529	100	371	stimuli/movArt/helicopter/ma_helicopter09.jpg    	1	5	1	ma_helicopter09.jpg  	movArt   	2	helicopter	19	helicopter09	198	not_alive	0	moves	1	artefact	0	n	0	0        	 	0.0	0	148.544872599887	148.644872799981	0.100000200094655
167679	100	372	stimuli/movArt/helicopter/ma_helicopter08.jpg    	1	5	1	ma_helicopter08.jpg  	movArt   	2	helicopter	19	helicopter08	197	not_alive	0	moves	1	artefact	0	n	1	0        	 	0.0	0	148.694882299984	148.794873999897	0.0999916999135166
167829	100	373	stimuli/nonmovNat/shell/nmn_shell03.jpg          	1	5	1	nmn_shell03.jpg      	nonmovNat	5	shell     	32	shell03     	322	not_alive	0	still	0	natural 	1	n	0	0        	 	0.0	0	148.844884699909	148.944880099967	0.0999954000581056
167979	100	374	stimuli/plant2/palmtree/plant_palmtree03.jpg     	1	5	1	plant_palmtree03.jpg 	plant2   	7	palmtree  	27	palmtree03  	272	alive    	1	still	0	natural 	1	n	0	1        	f	0.391981899971142	1	148.994907000102	149.09488400002	0.0999769999179989
168129	100	375	stimuli/plant2/moss/plant_moss07.jpg             	1	5	1	plant_moss07.jpg     	plant2   	7	moss      	25	moss07      	256	alive    	1	still	0	natural 	1	n	0	0        	 	0.0	0	149.144899799954	149.244902699953	0.100002899998799
168279	100	376	stimuli/movArt/bus/ma_bus02.jpg                  	1	5	1	ma_bus02.jpg         	movArt   	2	bus       	3	bus02       	31	not_alive	0	moves	1	artefact	0	n	0	0        	 	0.0	0	149.294919499895	149.394908699905	0.0999892000108957
168429	100	377	stimuli/movNat/fire/mn_fire01.jpg                	1	5	1	mn_fire01.jpg        	movNat   	3	fire      	15	fire01      	150	not_alive	0	moves	1	natural 	1	n	0	0        	 	0.0	0	149.444915500004	149.544895099942	0.0999795999377966
168579	100	378	stimuli/plant/flower/plant_flower07.jpg          	1	5	1	plant_flower07.jpg   	plant    	6	flower    	16	flower07    	166	alive    	1	still	0	natural 	1	n	1	0        	 	0.0	0	149.594918000046	149.694913299987	0.0999952999409288
168729	100	379	stimuli/movArt/bus/ma_bus04.jpg                  	1	5	1	ma_bus04.jpg         	movArt   	2	bus       	3	bus04       	33	not_alive	0	moves	1	artefact	0	n	0	0        	 	0.0	0	149.744907499989	149.844920899952	0.100013399962336
168879	100	380	stimuli/plant/grass/plant_grass08.jpg            	1	5	1	plant_grass08.jpg    	plant    	6	grass     	17	grass08     	177	alive    	1	still	0	natural 	1	n	0	1        	f	0.391982899978757	1	149.894914099947	149.994919999968	0.100005900021642
169029	100	381	stimuli/plant/tree/plant_tree04.jpg              	1	5	1	plant_tree04.jpg     	plant    	6	tree      	35	tree04      	353	alive    	1	still	0	natural 	1	n	0	0        	 	0.0	0	150.044915500097	150.14492370002	0.10000819992274
169179	100	382	stimuli/movNat/river/mn_river08.jpg              	1	5	1	mn_river08.jpg       	movNat   	3	river     	29	river08     	297	not_alive	0	moves	1	natural 	1	n	0	0        	 	0.0	0	150.194918799913	150.294928400079	0.100009600166231
169329	100	383	stimuli/nonmovNat/cliff/nmn_cliff08.jpg          	1	5	1	nmn_cliff08.jpg      	nonmovNat	5	cliff     	7	cliff08     	77	not_alive	0	still	0	natural 	1	n	0	0        	 	0.0	0	150.344939999981	150.444934899919	0.099994899937883
169479	100	384	stimuli/animals/horse/animal_horse06.jpg         	1	5	1	animal_horse06.jpg   	animals  	0	horse     	20	horse06     	205	alive    	1	moves	1	natural 	1	n	0	0        	 	0.0	0	150.49493029993	150.594921099953	0.0999908000230789
169629	100	385	stimuli/movNat/hotspring/mn_hotspring10.jpg      	1	5	1	mn_hotspring10.jpg   	movNat   	3	hotspring 	21	hotspring10 	219	not_alive	0	moves	1	natural 	1	n	0	0        	 	0.0	0	150.644947800087	150.744950900087	0.100003100000322
169779	100	386	stimuli/animals/dog/animal_dog02.jpg             	1	5	1	animal_dog02.jpg     	animals  	0	dog       	11	dog02       	111	alive    	1	moves	1	natural 	1	n	0	0        	 	0.0	0	150.79494949989	150.894944299944	0.0999948000535369
169929	100	387	stimuli/nonmovNat/cliff/nmn_cliff03.jpg          	1	5	1	nmn_cliff03.jpg      	nonmovNat	5	cliff     	7	cliff03     	72	not_alive	0	still	0	natural 	1	n	0	0        	 	0.0	0	150.944952700054	151.044930299977	0.0999775999225676
170079	100	388	stimuli/movNat/fire/mn_fire09.jpg                	1	5	1	mn_fire09.jpg        	movNat   	3	fire      	15	fire09      	158	not_alive	0	moves	1	natural 	1	n	0	0        	 	0.0	0	151.094953800086	151.19495210005	0.0999982999637723
170229	100	389	stimuli/nonmovArt/headphones/nma_headphones09.jpg	1	5	1	nma_headphones09.jpg 	nonmovArt	4	headphones	18	headphones09	188	not_alive	0	still	0	artefact	0	n	0	0        	 	0.0	0	151.244942700025	151.344952800078	0.100010100053623
170379	100	390	stimuli/animals/horse/animal_horse04.jpg         	1	5	1	animal_horse04.jpg   	animals  	0	horse     	20	horse04     	203	alive    	1	moves	1	natural 	1	n	0	0        	 	0.0	0	151.394963599974	151.494942999911	0.0999793999362737
170529	100	391	stimuli/movArt/boat/ma_boat07.jpg                	1	5	1	ma_boat07.jpg        	movArt   	2	boat      	2	boat07      	26	not_alive	0	moves	1	artefact	0	n	0	0        	 	0.0	0	151.54495209991	151.644963799976	0.100011700065807
170679	100	392	stimuli/animals/cat/animal_cat10.jpg             	1	5	1	animal_cat10.jpg     	animals  	0	cat       	6	cat10       	69	alive    	1	moves	1	natural 	1	n	0	0        	 	0.0	0	151.694970600074	151.794947199989	0.0999765999149531
170829	100	393	stimuli/animals2/lemur/animal_lemur09.jpg        	1	5	1	animal_lemur09.jpg   	animals2 	1	lemur     	23	lemur09     	238	alive    	1	moves	1	natural 	1	n	0	0        	 	0.0	0	151.844974600011	151.944971000077	0.0999964000657201
170979	100	394	stimuli/nonmovArt/clothespeg/nma_clothespeg05.jpg	1	5	1	nma_clothespeg05.jpg 	nonmovArt	4	clothespeg	8	clothespeg05	84	not_alive	0	still	0	artefact	0	n	0	0        	 	0.0	0	151.994978900068	152.094977299916	0.0999983998481184
171129	100	395	stimuli/nonmovArt/mug/nma_mug08.jpg              	1	5	1	nma_mug08.jpg        	nonmovArt	4	mug       	26	mug08       	267	not_alive	0	still	0	artefact	0	n	0	0        	 	0.0	0	152.144967	152.244960699929	0.0999936999287456
171279	100	396	stimuli/movNat/waterfall/mn_waterfall10.jpg      	1	5	1	mn_waterfall10.jpg   	movNat   	3	waterfall 	37	waterfall10 	379	not_alive	0	moves	1	natural 	1	n	0	0        	 	0.0	0	152.29498580005	152.394980000099	0.0999942000489682
171429	100	397	stimuli/plant2/palmtree/plant_palmtree07.jpg     	1	5	1	plant_palmtree07.jpg 	plant2   	7	palmtree  	27	palmtree07  	276	alive    	1	still	0	natural 	1	n	0	0        	 	0.0	0	152.444988500094	152.544984299922	0.0999957998283207
171579	100	398	stimuli/nonmovArt/lock/nma_lock07.jpg            	1	5	1	nma_lock07.jpg       	nonmovArt	4	lock      	24	lock07      	246	not_alive	0	still	0	artefact	0	n	0	0        	 	0.0	0	152.595004099887	152.694989599986	0.0999855000991374
171729	100	399	stimuli/animals2/tiger/animal_tiger06.jpg        	1	5	1	animal_tiger06.jpg   	animals2 	1	tiger     	33	tiger06     	335	alive    	1	moves	1	natural 	1	n	0	0        	 	0.0	0	152.744997000089	152.844974699896	0.0999776998069137
183246	100	400	stimuli/plant2/fern/plant_fern10.jpg             	1	6	1	plant_fern10.jpg     	plant2   	7	fern      	14	fern10      	149	alive    	1	still	0	natural 	1	n	0	0        	 	0.0	0	164.261928800028	164.361917299917	0.0999884998891503
183396	100	401	stimuli/animals/eagle/animal_eagle06.jpg         	1	6	1	animal_eagle06.jpg   	animals  	0	eagle     	13	eagle06     	135	alive    	1	moves	1	natural 	1	n	0	0        	 	0.0	0	164.411930999951	164.511921599973	0.099990600021556
183546	100	402	stimuli/nonmovNat/rock/nmn_rock08.jpg            	1	6	1	nmn_rock08.jpg       	nonmovNat	5	rock      	30	rock08      	307	not_alive	0	still	0	natural 	1	n	0	0        	 	0.0	0	164.561932600103	164.661927999929	0.0999953998252749
183696	100	403	stimuli/movNat/hotspring/mn_hotspring06.jpg      	1	6	1	mn_hotspring06.jpg   	movNat   	3	hotspring 	21	hotspring06 	215	not_alive	0	moves	1	natural 	1	n	0	0        	 	0.0	0	164.711945400108	164.81195480004	0.100009399931878
183846	100	404	stimuli/animals/dolphin/animal_dolphin01.jpg     	1	6	1	animal_dolphin01.jpg 	animals  	0	dolphin   	12	dolphin01   	120	alive    	1	moves	1	natural 	1	n	0	0        	 	0.0	0	164.861939900089	164.961930700112	0.0999908000230789
183996	100	405	stimuli/animals2/whale/animal_whale06.jpg        	1	6	1	animal_whale06.jpg   	animals2 	1	whale     	39	whale06     	395	alive    	1	moves	1	natural 	1	n	0	0        	 	0.0	0	165.011942199897	165.111935900059	0.0999937001615763
184146	100	406	stimuli/plant/cactus/plant_cactus10.jpg          	1	6	1	plant_cactus10.jpg   	plant    	6	cactus    	4	cactus10    	49	alive    	1	still	0	natural 	1	n	0	0        	 	0.0	0	165.161946400069	165.261939899996	0.0999934999272227
184296	100	407	stimuli/movArt/train/ma_train04.jpg              	1	6	1	ma_train04.jpg       	movArt   	2	train     	34	train04     	343	not_alive	0	moves	1	artefact	0	n	0	0        	 	0.0	0	165.311951000011	165.411958700046	0.100007700035349
184446	100	408	stimuli/plant2/clover/plant_clover09.jpg         	1	6	1	plant_clover09.jpg   	plant2   	7	clover    	9	clover09    	98	alive    	1	still	0	natural 	1	n	0	0        	 	0.0	0	165.461954799946	165.561959200073	0.100004400126636
184596	100	409	stimuli/nonmovNat/rock/nmn_rock01.jpg            	1	6	1	nmn_rock01.jpg       	nonmovNat	5	rock      	30	rock01      	300	not_alive	0	still	0	natural 	1	n	0	0        	 	0.0	0	165.611956200097	165.711948500015	0.0999922999180853
184746	100	410	stimuli/plant/vine/plant_vine04.jpg              	1	6	1	plant_vine04.jpg     	plant    	6	vine      	36	vine04      	363	alive    	1	still	0	natural 	1	n	0	0        	 	0.0	0	165.761960800039	165.861952600069	0.0999918000306934
184896	100	411	stimuli/plant/cactus/plant_cactus07.jpg          	1	6	1	plant_cactus07.jpg   	plant    	6	cactus    	4	cactus07    	46	alive    	1	still	0	natural 	1	n	0	0        	 	0.0	0	165.911983000115	166.011959699914	0.0999766997992992
185046	100	412	stimuli/plant2/lemontree/plant_lemontree04.jpg   	1	6	1	plant_lemontree04.jpg	plant2   	7	lemontree 	22	lemontree04 	223	alive    	1	still	0	natural 	1	n	0	0        	 	0.0	0	166.061967399903	166.161965599982	0.0999982000794262
