onset	duration	eventnumber	stimulus_file	blockno	trialno	is_faststream	stim	stim_category	category_number	exemplar	exemplar_number	image_name	image_number	aliveness	aliveness_bin	movement	movement_bin	naturalness	naturalness_bin	response_hand_alive	istarget	response	keypressed	rt	correct	time_stimon	time_stimoff	stimdur
63272	100	0	stimuli/plant/tree/plant_tree07.jpg              	1	1	1	plant_tree07.jpg     	plant    	6	tree      	35	tree07      	356	alive    	1	still	0	natural 	1	n	0	0        	 	0.0	0	54.2361613999819	54.3361482999753	0.0999868999933824
63422	100	1	stimuli/animals/cat/animal_cat05.jpg             	1	1	1	animal_cat05.jpg     	animals  	0	cat       	6	cat05       	64	alive    	1	moves	1	natural 	1	n	0	0        	 	0.0	0	54.3861550999573	54.486140999943	0.0999858999857679
63572	100	2	stimuli/movArt/bus/ma_bus05.jpg                  	1	1	1	ma_bus05.jpg         	movArt   	2	bus       	3	bus05       	34	not_alive	0	moves	1	artefact	0	n	0	0        	 	0.0	0	54.5361556999851	54.636142399977	0.0999866999918595
63722	100	3	stimuli/nonmovNat/sand/nmn_sand02.jpg            	1	1	1	nmn_sand02.jpg       	nonmovNat	5	sand      	31	sand02      	311	not_alive	0	still	0	natural 	1	n	0	0        	 	0.0	0	54.6861546	54.7861490999349	0.0999944999348372
63872	100	4	stimuli/animals2/lemur/animal_lemur10.jpg        	1	1	1	animal_lemur10.jpg   	animals2 	1	lemur     	23	lemur10     	239	alive    	1	moves	1	natural 	1	n	0	0        	 	0.0	0	54.8361565999221	54.9361656999681	0.100009100046009
64022	100	5	stimuli/animals/dog/animal_dog10.jpg             	1	1	1	animal_dog10.jpg     	animals  	0	dog       	11	dog10       	119	alive    	1	moves	1	natural 	1	n	0	0        	 	0.0	0	54.9861632999964	55.0861558999168	0.0999925999203697
64172	100	6	stimuli/animals2/bee/animal_bee01.jpg            	1	1	1	animal_bee01.jpg     	animals2 	1	bee       	0	bee01       	0	alive    	1	moves	1	natural 	1	n	0	0        	 	0.0	0	55.1361683999421	55.2361624999903	0.0999941000482068
64322	100	7	stimuli/movArt/car/ma_car06.jpg                  	1	1	1	ma_car06.jpg         	movArt   	2	car       	5	car06       	55	not_alive	0	moves	1	artefact	0	n	0	0        	 	0.0	0	55.2864581999602	55.3861949999118	0.0997367999516428
64472	100	8	stimuli/animals/dolphin/animal_dolphin07.jpg     	1	1	1	animal_dolphin07.jpg 	animals  	0	dolphin   	12	dolphin07   	126	alive    	1	moves	1	natural 	1	n	0	0        	 	0.0	0	55.4361756999278	55.5361907999031	0.10001509997528
64622	100	9	stimuli/nonmovNat/crystal/nmn_crystal08.jpg      	1	1	1	nmn_crystal08.jpg    	nonmovNat	5	crystal   	10	crystal08   	107	not_alive	0	still	0	natural 	1	n	0	0        	 	0.0	0	55.5861749999458	55.6861649999628	0.0999900000169873
64772	100	10	stimuli/nonmovNat/rock/nmn_rock03.jpg            	1	1	1	nmn_rock03.jpg       	nonmovNat	5	rock      	30	rock03      	302	not_alive	0	still	0	natural 	1	n	0	0        	 	0.0	0	55.7361763999797	55.8361717999214	0.0999953999416903
64922	100	11	stimuli/nonmovNat/shell/nmn_shell06.jpg          	1	1	1	nmn_shell06.jpg      	nonmovNat	5	shell     	32	shell06     	325	not_alive	0	still	0	natural 	1	n	0	0        	 	0.0	0	55.8861790999072	55.9861722999485	0.0999932000413537
65072	100	12	stimuli/animals2/tiger/animal_tiger02.jpg        	1	1	1	animal_tiger02.jpg   	animals2 	1	tiger     	33	tiger02     	331	alive    	1	moves	1	natural 	1	n	0	0        	 	0.0	0	56.0361845999723	56.1361925000092	0.100007900036871
65222	100	13	stimuli/movNat/hotspring/mn_hotspring10.jpg      	1	1	1	mn_hotspring10.jpg   	movNat   	3	hotspring 	21	hotspring10 	219	not_alive	0	moves	1	natural 	1	n	1	0        	 	0.0	0	56.1861901999218	56.286183499964	0.0999933000421152
65372	100	14	stimuli/movNat/fire/mn_fire03.jpg                	1	1	1	mn_fire03.jpg        	movNat   	3	fire      	15	fire03      	152	not_alive	0	moves	1	natural 	1	n	0	0        	 	0.0	0	56.3361929999664	56.4361992999911	0.100006300024688
65522	100	15	stimuli/animals2/whale/animal_whale02.jpg        	1	1	1	animal_whale02.jpg   	animals2 	1	whale     	39	whale02     	391	alive    	1	moves	1	natural 	1	n	0	0        	 	0.0	0	56.4861973999068	56.5861970999977	0.0999997000908479
65672	100	16	stimuli/animals/eagle/animal_eagle02.jpg         	1	1	1	animal_eagle02.jpg   	animals  	0	eagle     	13	eagle02     	131	alive    	1	moves	1	natural 	1	n	0	0        	 	0.0	0	56.6362015999621	56.7362153999275	0.100013799965382
65822	100	17	stimuli/nonmovNat/crystal/nmn_crystal02.jpg      	1	1	1	nmn_crystal02.jpg    	nonmovNat	5	crystal   	10	crystal02   	101	not_alive	0	still	0	natural 	1	n	0	1        	f	0.59216560004279	1	56.7862026999937	56.8861968999263	0.0999941999325529
65972	100	18	stimuli/plant/grass/plant_grass06.jpg            	1	1	1	plant_grass06.jpg    	plant    	6	grass     	17	grass06     	175	alive    	1	still	0	natural 	1	n	0	0        	 	0.0	0	56.9361994999927	57.036229899968	0.100030399975367
66122	100	19	stimuli/movNat/river/mn_river05.jpg              	1	1	1	mn_river05.jpg       	movNat   	3	river     	29	river05     	294	not_alive	0	moves	1	natural 	1	n	0	0        	 	0.0	0	57.0862394999713	57.1862334999023	0.09999399993103
66272	100	20	stimuli/plant/cactus/plant_cactus03.jpg          	1	1	1	plant_cactus03.jpg   	plant    	6	cactus    	4	cactus03    	42	alive    	1	still	0	natural 	1	n	0	0        	 	0.0	0	57.236242899904	57.3362364999484	0.0999936000443995
66422	100	21	stimuli/plant/grass/plant_grass01.jpg            	1	1	1	plant_grass01.jpg    	plant    	6	grass     	17	grass01     	170	alive    	1	still	0	natural 	1	n	0	0        	 	0.0	0	57.3862480999669	57.4862475999398	0.0999994999729097
66572	100	22	stimuli/plant/flower/plant_flower05.jpg          	1	1	1	plant_flower05.jpg   	plant    	6	flower    	16	flower05    	164	alive    	1	still	0	natural 	1	n	0	0        	 	0.0	0	57.5362552999286	57.6362317999592	0.099976500030607
66722	100	23	stimuli/movArt/boat/ma_boat08.jpg                	1	1	1	ma_boat08.jpg        	movArt   	2	boat      	2	boat08      	27	not_alive	0	moves	1	artefact	0	n	0	0        	 	0.0	0	57.686241999967	57.7862504000077	0.100008400040679
66872	100	24	stimuli/nonmovArt/headphones/nma_headphones08.jpg	1	1	1	nma_headphones08.jpg 	nonmovArt	4	headphones	18	headphones08	187	not_alive	0	still	0	artefact	0	n	0	0        	 	0.0	0	57.8362612999044	57.9362366999267	0.099975400022231
67022	100	25	stimuli/movNat/waves/mn_waves03.jpg              	1	1	1	mn_waves03.jpg       	movNat   	3	waves     	38	waves03     	382	not_alive	0	moves	1	natural 	1	n	0	0        	 	0.0	0	57.9862634999445	58.0862471999135	0.099983699969016
67172	100	26	stimuli/movNat/waterfall/mn_waterfall10.jpg      	1	1	1	mn_waterfall10.jpg   	movNat   	3	waterfall 	37	waterfall10 	379	not_alive	0	moves	1	natural 	1	n	0	0        	 	0.0	0	58.1362556999084	58.2362667999696	0.100011100061238
67322	100	27	stimuli/animals2/whale/animal_whale05.jpg        	1	1	1	animal_whale05.jpg   	animals2 	1	whale     	39	whale05     	394	alive    	1	moves	1	natural 	1	n	0	0        	 	0.0	0	58.2862723999424	58.3862640999723	0.099991700029932
67472	100	28	stimuli/movArt/train/ma_train09.jpg              	1	1	1	ma_train09.jpg       	movArt   	2	train     	34	train09     	348	not_alive	0	moves	1	artefact	0	n	0	0        	 	0.0	0	58.4362744999817	58.5362562999362	0.0999817999545485
67622	100	29	stimuli/movArt/train/ma_train09.jpg              	1	1	1	ma_train09.jpg       	movArt   	2	train     	34	train09     	348	not_alive	0	moves	1	artefact	0	n	0	0        	 	0.0	0	58.5862797999289	58.6862561999587	0.0999764000298455
67772	100	30	stimuli/animals/horse/animal_horse01.jpg         	1	1	1	animal_horse01.jpg   	animals  	0	horse     	20	horse01     	200	alive    	1	moves	1	natural 	1	n	0	0        	 	0.0	0	58.7362835999811	58.8362672999501	0.099983699969016
67922	100	31	stimuli/plant2/lemontree/plant_lemontree01.jpg   	1	1	1	plant_lemontree01.jpg	plant2   	7	lemontree 	22	lemontree01 	220	alive    	1	still	0	natural 	1	n	0	0        	 	0.0	0	58.8862706999062	58.9862934999401	0.100022800033912
68072	100	32	stimuli/plant2/moss/plant_moss01.jpg             	1	1	1	plant_moss01.jpg     	plant2   	7	moss      	25	moss01      	250	alive    	1	still	0	natural 	1	n	0	0        	 	0.0	0	59.0362919999752	59.1362693000119	0.0999773000366986
68222	100	33	stimuli/nonmovNat/shell/nmn_shell07.jpg          	1	1	1	nmn_shell07.jpg      	nonmovNat	5	shell     	32	shell07     	326	not_alive	0	still	0	natural 	1	n	0	0        	 	0.0	0	59.1862948999042	59.2863021999365	0.100007300032303
68372	100	34	stimuli/plant/cactus/plant_cactus05.jpg          	1	1	1	plant_cactus05.jpg   	plant    	6	cactus    	4	cactus05    	44	alive    	1	still	0	natural 	1	n	0	0        	 	0.0	0	59.3363005999709	59.4362944999011	0.0999938999302685
68522	100	35	stimuli/animals2/bee/animal_bee03.jpg            	1	1	1	animal_bee03.jpg     	animals2 	1	bee       	0	bee03       	2	alive    	1	moves	1	natural 	1	n	0	0        	 	0.0	0	59.486303399899	59.5862828999525	0.0999795000534505
68672	100	36	stimuli/plant2/lemontree/plant_lemontree01.jpg   	1	1	1	plant_lemontree01.jpg	plant2   	7	lemontree 	22	lemontree01 	220	alive    	1	still	0	natural 	1	n	0	0        	 	0.0	0	59.6362895999337	59.7363208999159	0.10003129998222
68822	100	37	stimuli/animals2/tiger/animal_tiger09.jpg        	1	1	1	animal_tiger09.jpg   	animals2 	1	tiger     	33	tiger09     	338	alive    	1	moves	1	natural 	1	n	0	0        	 	0.0	0	59.7862969998969	59.8863094999688	0.100012500071898
68972	100	38	stimuli/animals2/tiger/animal_tiger08.jpg        	1	1	1	animal_tiger08.jpg   	animals2 	1	tiger     	33	tiger08     	337	alive    	1	moves	1	natural 	1	n	0	0        	 	0.0	0	59.9362989999354	60.0363088999875	0.1000099000521
69122	100	39	stimuli/plant/vine/plant_vine05.jpg              	1	1	1	plant_vine05.jpg     	plant    	6	vine      	36	vine05      	364	alive    	1	still	0	natural 	1	n	0	0        	 	0.0	0	60.0863226999063	60.1863141999347	0.0999915000284091
69272	100	40	stimuli/movArt/car/ma_car01.jpg                  	1	1	1	ma_car01.jpg         	movArt   	2	car       	5	car01       	50	not_alive	0	moves	1	artefact	0	n	0	0        	 	0.0	0	60.236324199941	60.3363052000059	0.0999810000648722
69422	100	41	stimuli/movNat/fire/mn_fire03.jpg                	1	1	1	mn_fire03.jpg        	movNat   	3	fire      	15	fire03      	152	not_alive	0	moves	1	natural 	1	n	0	0        	 	0.0	0	60.3863338999217	60.4863186998991	0.099984799977392
69572	100	42	stimuli/nonmovNat/sand/nmn_sand03.jpg            	1	1	1	nmn_sand03.jpg       	nonmovNat	5	sand      	31	sand03      	312	not_alive	0	still	0	natural 	1	n	0	0        	 	0.0	0	60.5363301999168	60.636323499959	0.0999933000421152
69722	100	43	stimuli/plant2/moss/plant_moss08.jpg             	1	1	1	plant_moss08.jpg     	plant2   	7	moss      	25	moss08      	257	alive    	1	still	0	natural 	1	n	0	0        	 	0.0	0	60.6863255999051	60.7863276998978	0.100002099992707
69872	100	44	stimuli/movArt/helicopter/ma_helicopter03.jpg    	1	1	1	ma_helicopter03.jpg  	movArt   	2	helicopter	19	helicopter03	192	not_alive	0	moves	1	artefact	0	n	0	0        	 	0.0	0	60.8363310999703	60.9363160999492	0.0999849999789149
70022	100	45	stimuli/nonmovArt/headphones/nma_headphones08.jpg	1	1	1	nma_headphones08.jpg 	nonmovArt	4	headphones	18	headphones08	187	not_alive	0	still	0	artefact	0	n	0	0        	 	0.0	0	60.9863442999776	61.0863377999049	0.0999934999272227
70172	100	46	stimuli/nonmovArt/lock/nma_lock10.jpg            	1	1	1	nma_lock10.jpg       	nonmovArt	4	lock      	24	lock10      	249	not_alive	0	still	0	artefact	0	n	0	0        	 	0.0	0	61.1363480999135	61.2363394999411	0.0999914000276476
70322	100	47	stimuli/nonmovNat/cliff/nmn_cliff01.jpg          	1	1	1	nmn_cliff01.jpg      	nonmovNat	5	cliff     	7	cliff01     	70	not_alive	0	still	0	natural 	1	n	0	0        	 	0.0	0	61.2863516999641	61.3863454000093	0.099993700045161
70472	100	48	stimuli/plant/vine/plant_vine04.jpg              	1	1	1	plant_vine04.jpg     	plant    	6	vine      	36	vine04      	363	alive    	1	still	0	natural 	1	n	0	0        	 	0.0	0	61.4363418999128	61.5363518999657	0.100010000052862
70622	100	49	stimuli/plant2/palmtree/plant_palmtree06.jpg     	1	1	1	plant_palmtree06.jpg 	plant2   	7	palmtree  	27	palmtree06  	275	alive    	1	still	0	natural 	1	n	0	0        	 	0.0	0	61.5863638999872	61.6863622999517	0.0999983999645338
70772	100	50	stimuli/plant2/moss/plant_moss09.jpg             	1	1	1	plant_moss09.jpg     	plant2   	7	moss      	25	moss09      	258	alive    	1	still	0	natural 	1	n	0	0        	 	0.0	0	61.7363460999914	61.8363556999247	0.100009599933401
70922	100	51	stimuli/animals2/pigeon/animal_pigeon05.jpg      	1	1	1	animal_pigeon05.jpg  	animals2 	1	pigeon    	28	pigeon05    	284	alive    	1	moves	1	natural 	1	n	0	0        	 	0.0	0	61.8863686999539	61.986345399986	0.0999767000321299
71072	100	52	stimuli/animals2/lemur/animal_lemur04.jpg        	1	1	1	animal_lemur04.jpg   	animals2 	1	lemur     	23	lemur04     	233	alive    	1	moves	1	natural 	1	n	1	0        	 	0.0	0	62.0363719000015	62.1363640999189	0.0999921999173239
71222	100	53	stimuli/movNat/river/mn_river06.jpg              	1	1	1	mn_river06.jpg       	movNat   	3	river     	29	river06     	295	not_alive	0	moves	1	natural 	1	n	0	0        	 	0.0	0	62.1863596999319	62.2863489999436	0.0999893000116572
71372	100	54	stimuli/movArt/bus/ma_bus06.jpg                  	1	1	1	ma_bus06.jpg         	movArt   	2	bus       	3	bus06       	35	not_alive	0	moves	1	artefact	0	n	0	1        	f	0.305693399976008	1	62.3363823000109	62.4363502999768	0.0999679999658838
71522	100	55	stimuli/movArt/helicopter/ma_helicopter05.jpg    	1	1	1	ma_helicopter05.jpg  	movArt   	2	helicopter	19	helicopter05	194	not_alive	0	moves	1	artefact	0	n	0	0        	 	0.0	0	62.4863686999306	62.5863552999217	0.099986599991098
71672	100	56	stimuli/nonmovArt/headphones/nma_headphones10.jpg	1	1	1	nma_headphones10.jpg 	nonmovArt	4	headphones	18	headphones10	189	not_alive	0	still	0	artefact	0	n	0	0        	 	0.0	0	62.6363655999303	62.7363570999587	0.0999915000284091
71822	100	57	stimuli/animals/eagle/animal_eagle04.jpg         	1	1	1	animal_eagle04.jpg   	animals  	0	eagle     	13	eagle04     	133	alive    	1	moves	1	natural 	1	n	0	0        	 	0.0	0	62.7863685999764	62.8863623999059	0.0999937999295071
71972	100	58	stimuli/animals/cat/animal_cat05.jpg             	1	1	1	animal_cat05.jpg     	animals  	0	cat       	6	cat05       	64	alive    	1	moves	1	natural 	1	n	1	0        	 	0.0	0	62.9363721999107	63.0363648999482	0.0999927000375465
72122	100	59	stimuli/plant2/clover/plant_clover05.jpg         	1	1	1	plant_clover05.jpg   	plant2   	7	clover    	9	clover05    	94	alive    	1	still	0	natural 	1	n	0	0        	 	0.0	0	63.0863773999736	63.1863699000096	0.0999925000360236
72272	100	60	stimuli/animals/cat/animal_cat02.jpg             	1	1	1	animal_cat02.jpg     	animals  	0	cat       	6	cat02       	61	alive    	1	moves	1	natural 	1	n	0	0        	 	0.0	0	63.2363813999109	63.3363859999226	0.100004600011744
72422	100	61	stimuli/plant2/lemontree/plant_lemontree07.jpg   	1	1	1	plant_lemontree07.jpg	plant2   	7	lemontree 	22	lemontree07 	226	alive    	1	still	0	natural 	1	n	0	0        	 	0.0	0	63.3863828999456	63.4863791000098	0.0999962000641972
72572	100	62	stimuli/movArt/bus/ma_bus04.jpg                  	1	1	1	ma_bus04.jpg         	movArt   	2	bus       	3	bus04       	33	not_alive	0	moves	1	artefact	0	n	0	1        	f	0.592170000076294	1	63.5363901999081	63.6363830999471	0.0999929000390694
72722	100	63	stimuli/nonmovNat/cliff/nmn_cliff08.jpg          	1	1	1	nmn_cliff08.jpg      	nonmovNat	5	cliff     	7	cliff08     	77	not_alive	0	still	0	natural 	1	n	0	0        	 	0.0	0	63.6864088999573	63.7864176000003	0.100008700042963
72872	100	64	stimuli/animals2/bee/animal_bee05.jpg            	1	1	1	animal_bee05.jpg     	animals2 	1	bee       	0	bee05       	4	alive    	1	moves	1	natural 	1	n	0	0        	 	0.0	0	63.8363974000095	63.9363887999207	0.0999913999112323
73022	100	65	stimuli/plant/cactus/plant_cactus10.jpg          	1	1	1	plant_cactus10.jpg   	plant    	6	cactus    	4	cactus10    	49	alive    	1	still	0	natural 	1	n	1	0        	 	0.0	0	63.986401299946	64.0863962000003	0.0999949000542983
73172	100	66	stimuli/plant2/clover/plant_clover10.jpg         	1	1	1	plant_clover10.jpg   	plant2   	7	clover    	9	clover10    	99	alive    	1	still	0	natural 	1	n	0	0        	 	0.0	0	64.1364038999891	64.2363983999239	0.0999944999348372
73322	100	67	stimuli/animals2/pigeon/animal_pigeon09.jpg      	1	1	1	animal_pigeon09.jpg  	animals2 	1	pigeon    	28	pigeon09    	288	alive    	1	moves	1	natural 	1	n	0	1        	f	0.392053100047633	1	64.2864129999653	64.3864017999731	0.0999888000078499
73472	100	68	stimuli/animals/dog/animal_dog07.jpg             	1	1	1	animal_dog07.jpg     	animals  	0	dog       	11	dog07       	116	alive    	1	moves	1	natural 	1	n	0	0        	 	0.0	0	64.4364120999817	64.5364011999918	0.0999891000101343
73622	100	69	stimuli/plant2/palmtree/plant_palmtree07.jpg     	1	1	1	plant_palmtree07.jpg 	plant2   	7	palmtree  	27	palmtree07  	276	alive    	1	still	0	natural 	1	n	0	0        	 	0.0	0	64.5864158999175	64.6864095999626	0.099993700045161
73772	100	70	stimuli/plant/tree/plant_tree07.jpg              	1	1	1	plant_tree07.jpg     	plant    	6	tree      	35	tree07      	356	alive    	1	still	0	natural 	1	n	0	0        	 	0.0	0	64.736420399975	64.8364140999038	0.0999936999287456
73922	100	71	stimuli/animals/horse/animal_horse08.jpg         	1	1	1	animal_horse08.jpg   	animals  	0	horse     	20	horse08     	207	alive    	1	moves	1	natural 	1	n	0	0        	 	0.0	0	64.8864234999055	64.9864190999651	0.0999956000596285
74072	100	72	stimuli/movNat/hotspring/mn_hotspring02.jpg      	1	1	1	mn_hotspring02.jpg   	movNat   	3	hotspring 	21	hotspring02 	211	not_alive	0	moves	1	natural 	1	n	0	0        	 	0.0	0	65.0364295999752	65.1364346999908	0.100005100015551
74222	100	73	stimuli/nonmovArt/bench/nma_bench02.jpg          	1	1	1	nma_bench02.jpg      	nonmovArt	4	bench     	1	bench02     	11	not_alive	0	still	0	artefact	0	n	0	0        	 	0.0	0	65.1864328999072	65.2864390999312	0.100006200023927
74372	100	74	stimuli/movNat/waves/mn_waves07.jpg              	1	1	1	mn_waves07.jpg       	movNat   	3	waves     	38	waves07     	386	not_alive	0	moves	1	natural 	1	n	0	0        	 	0.0	0	65.336435199948	65.4364302000031	0.0999950000550598
74522	100	75	stimuli/nonmovArt/clothespeg/nma_clothespeg06.jpg	1	1	1	nma_clothespeg06.jpg 	nonmovArt	4	clothespeg	8	clothespeg06	85	not_alive	0	still	0	artefact	0	n	0	0        	 	0.0	0	65.4864393000025	65.5864320999244	0.0999927999218926
74672	100	76	stimuli/plant/flower/plant_flower03.jpg          	1	1	1	plant_flower03.jpg   	plant    	6	flower    	16	flower03    	162	alive    	1	still	0	natural 	1	n	0	0        	 	0.0	0	65.6364608999575	65.7364370999858	0.0999762000283226
74822	100	77	stimuli/nonmovNat/sand/nmn_sand09.jpg            	1	1	1	nmn_sand09.jpg       	nonmovNat	5	sand      	31	sand09      	318	not_alive	0	still	0	natural 	1	n	0	0        	 	0.0	0	65.7864483000012	65.8864431999391	0.099994899937883
74972	100	78	stimuli/movNat/fire/mn_fire09.jpg                	1	1	1	mn_fire09.jpg        	movNat   	3	fire      	15	fire09      	158	not_alive	0	moves	1	natural 	1	n	0	0        	 	0.0	0	65.9364531999454	66.036456599948	0.100003400002606
75122	100	79	stimuli/nonmovNat/rock/nmn_rock06.jpg            	1	1	1	nmn_rock06.jpg       	nonmovNat	5	rock      	30	rock06      	305	not_alive	0	still	0	natural 	1	n	0	0        	 	0.0	0	66.0864553999854	66.1864503999241	0.0999949999386445
81805	100	80	stimuli/nonmovArt/lock/nma_lock06.jpg            	1	2	1	nma_lock06.jpg       	nonmovArt	4	lock      	24	lock06      	245	not_alive	0	still	0	artefact	0	n	0	0        	 	0.0	0	72.7699709999142	72.8699579999084	0.0999869999941438
81955	100	81	stimuli/plant/grass/plant_grass03.jpg            	1	2	1	plant_grass03.jpg    	plant    	6	grass     	17	grass03     	172	alive    	1	still	0	natural 	1	n	0	0        	 	0.0	0	72.9199736999581	73.0199663999956	0.0999927000375465
82105	100	82	stimuli/movNat/waterfall/mn_waterfall01.jpg      	1	2	1	mn_waterfall01.jpg   	movNat   	3	waterfall 	37	waterfall01 	370	not_alive	0	moves	1	natural 	1	n	0	0        	 	0.0	0	73.069975099992	73.1699668999063	0.0999917999142781
82255	100	83	stimuli/plant2/palmtree/plant_palmtree01.jpg     	1	2	1	plant_palmtree01.jpg 	plant2   	7	palmtree  	27	palmtree01  	270	alive    	1	still	0	natural 	1	n	0	0        	 	0.0	0	73.2199797999346	73.3199731999776	0.0999934000428766
82405	100	84	stimuli/nonmovArt/clothespeg/nma_clothespeg08.jpg	1	2	1	nma_clothespeg08.jpg 	nonmovArt	4	clothespeg	8	clothespeg08	87	not_alive	0	still	0	artefact	0	n	0	0        	 	0.0	0	73.3699803999625	73.4699686999666	0.0999883000040427
82555	100	85	stimuli/nonmovNat/cliff/nmn_cliff10.jpg          	1	2	1	nmn_cliff10.jpg      	nonmovNat	5	cliff     	7	cliff10     	79	not_alive	0	still	0	natural 	1	n	0	0        	 	0.0	0	73.5199789999751	73.6199717000127	0.0999927000375465
82705	100	86	stimuli/animals2/whale/animal_whale03.jpg        	1	2	1	animal_whale03.jpg   	animals2 	1	whale     	39	whale03     	392	alive    	1	moves	1	natural 	1	n	0	0        	 	0.0	0	73.6699828999117	73.7699769999599	0.0999941000482068
82855	100	87	stimuli/movArt/helicopter/ma_helicopter06.jpg    	1	2	1	ma_helicopter06.jpg  	movArt   	2	helicopter	19	helicopter06	195	not_alive	0	moves	1	artefact	0	n	0	0        	 	0.0	0	73.8199889999814	73.9199811998988	0.0999921999173239
83005	100	88	stimuli/nonmovArt/lock/nma_lock04.jpg            	1	2	1	nma_lock04.jpg       	nonmovArt	4	lock      	24	lock04      	243	not_alive	0	still	0	artefact	0	n	0	0        	 	0.0	0	73.96998970001	74.0699834999396	0.0999937999295071
83155	100	89	stimuli/nonmovArt/mug/nma_mug08.jpg              	1	2	1	nma_mug08.jpg        	nonmovArt	4	mug       	26	mug08       	267	not_alive	0	still	0	artefact	0	n	0	0        	 	0.0	0	74.1199941999512	74.2199900000123	0.0999958000611514
83305	100	90	stimuli/plant/tree/plant_tree09.jpg              	1	2	1	plant_tree09.jpg     	plant    	6	tree      	35	tree09      	358	alive    	1	still	0	natural 	1	n	0	0        	 	0.0	0	74.2700003999053	74.3700036999071	0.100003300001845
83455	100	91	stimuli/movNat/hotspring/mn_hotspring10.jpg      	1	2	1	mn_hotspring10.jpg   	movNat   	3	hotspring 	21	hotspring10 	219	not_alive	0	moves	1	natural 	1	n	0	0        	 	0.0	0	74.4200072999811	74.5200003999053	0.0999930999241769
83605	100	92	stimuli/movArt/car/ma_car05.jpg                  	1	2	1	ma_car05.jpg         	movArt   	2	car       	5	car05       	54	not_alive	0	moves	1	artefact	0	n	0	0        	 	0.0	0	74.5700063999975	74.6699988999171	0.0999924999196082
83755	100	93	stimuli/nonmovArt/bench/nma_bench05.jpg          	1	2	1	nma_bench05.jpg      	nonmovArt	4	bench     	1	bench05     	14	not_alive	0	still	0	artefact	0	n	0	0        	 	0.0	0	74.7200116999447	74.8200048999861	0.0999932000413537
83905	100	94	stimuli/nonmovNat/crystal/nmn_crystal03.jpg      	1	2	1	nmn_crystal03.jpg    	nonmovNat	5	crystal   	10	crystal03   	102	not_alive	0	still	0	natural 	1	n	0	0        	 	0.0	0	74.8700131999794	74.9700089999242	0.0999957999447361
84055	100	95	stimuli/plant2/fern/plant_fern02.jpg             	1	2	1	plant_fern02.jpg     	plant2   	7	fern      	14	fern02      	141	alive    	1	still	0	natural 	1	n	0	0        	 	0.0	0	75.0200356999412	75.1200129999779	0.0999773000366986
84205	100	96	stimuli/plant/flower/plant_flower08.jpg          	1	2	1	plant_flower08.jpg   	plant    	6	flower    	16	flower08    	167	alive    	1	still	0	natural 	1	n	1	0        	 	0.0	0	75.1700238999911	75.2700189999305	0.0999950999394059
84355	100	97	stimuli/movNat/waves/mn_waves03.jpg              	1	2	1	mn_waves03.jpg       	movNat   	3	waves     	38	waves03     	382	not_alive	0	moves	1	natural 	1	n	0	0        	 	0.0	0	75.3200299999444	75.4200208999682	0.0999909000238404
84505	100	98	stimuli/animals/eagle/animal_eagle10.jpg         	1	2	1	animal_eagle10.jpg   	animals  	0	eagle     	13	eagle10     	139	alive    	1	moves	1	natural 	1	n	0	1        	f	0.292195399990305	1	75.4700319999829	75.5700248999055	0.099992899922654
84655	100	99	stimuli/movArt/boat/ma_boat10.jpg                	1	2	1	ma_boat10.jpg        	movArt   	2	boat      	2	boat10      	29	not_alive	0	moves	1	artefact	0	n	0	0        	 	0.0	0	75.6200343999081	75.7200293999631	0.0999950000550598
84805	100	100	stimuli/animals2/lemur/animal_lemur10.jpg        	1	2	1	animal_lemur10.jpg   	animals2 	1	lemur     	23	lemur10     	239	alive    	1	moves	1	natural 	1	n	0	0        	 	0.0	0	75.7700405999785	75.8700310999993	0.0999905000207946
84955	100	101	stimuli/nonmovNat/shell/nmn_shell09.jpg          	1	2	1	nmn_shell09.jpg      	nonmovNat	5	shell     	32	shell09     	328	not_alive	0	still	0	natural 	1	n	0	0        	 	0.0	0	75.9200437999098	76.0200374999549	0.099993700045161
85105	100	102	stimuli/animals/horse/animal_horse09.jpg         	1	2	1	animal_horse09.jpg   	animals  	0	horse     	20	horse09     	208	alive    	1	moves	1	natural 	1	n	0	0        	 	0.0	0	76.0700465999544	76.1700412000064	0.099994600052014
85255	100	103	stimuli/movArt/train/ma_train10.jpg              	1	2	1	ma_train10.jpg       	movArt   	2	train     	34	train10     	349	not_alive	0	moves	1	artefact	0	n	0	0        	 	0.0	0	76.2200522999046	76.3200440999353	0.0999918000306934
85405	100	104	stimuli/nonmovArt/bench/nma_bench03.jpg          	1	2	1	nma_bench03.jpg      	nonmovArt	4	bench     	1	bench03     	12	not_alive	0	still	0	artefact	0	n	1	0        	 	0.0	0	76.3700564999599	76.4700499000028	0.0999934000428766
85555	100	105	stimuli/plant2/fern/plant_fern05.jpg             	1	2	1	plant_fern05.jpg     	plant2   	7	fern      	14	fern05      	144	alive    	1	still	0	natural 	1	n	0	0        	 	0.0	0	76.5200602000114	76.6200694999425	0.100009299931116
85705	100	106	stimuli/movNat/waterfall/mn_waterfall02.jpg      	1	2	1	mn_waterfall02.jpg   	movNat   	3	waterfall 	37	waterfall02 	371	not_alive	0	moves	1	natural 	1	n	0	1        	f	0.404899299959652	1	76.6700620999327	76.7700643999269	0.10000229999423
85855	100	107	stimuli/animals/dog/animal_dog10.jpg             	1	2	1	animal_dog10.jpg     	animals  	0	dog       	11	dog10       	119	alive    	1	moves	1	natural 	1	n	0	0        	 	0.0	0	76.8200562999118	76.9200895999093	0.100033299997449
86005	100	108	stimuli/plant2/clover/plant_clover05.jpg         	1	2	1	plant_clover05.jpg   	plant2   	7	clover    	9	clover05    	94	alive    	1	still	0	natural 	1	n	0	0        	 	0.0	0	76.9700830999063	77.0700899999356	0.100006900029257
86155	100	109	stimuli/plant/vine/plant_vine09.jpg              	1	2	1	plant_vine09.jpg     	plant    	6	vine      	36	vine09      	368	alive    	1	still	0	natural 	1	n	0	0        	 	0.0	0	77.1201055999845	77.2200971000129	0.0999915000284091
86305	100	110	stimuli/nonmovArt/mug/nma_mug09.jpg              	1	2	1	nma_mug09.jpg        	nonmovArt	4	mug       	26	mug09       	268	not_alive	0	still	0	artefact	0	n	0	0        	 	0.0	0	77.2701070999028	77.3700840999372	0.0999770000344142
86456	100	111	stimuli/movArt/boat/ma_boat02.jpg                	1	2	1	ma_boat02.jpg        	movArt   	2	boat      	2	boat02      	21	not_alive	0	moves	1	artefact	0	n	0	0        	 	0.0	0	77.4201194999041	77.5201270999387	0.100007600034587
86606	100	112	stimuli/movNat/river/mn_river02.jpg              	1	2	1	mn_river02.jpg       	movNat   	3	river     	29	river02     	291	not_alive	0	moves	1	natural 	1	n	0	0        	 	0.0	0	77.5701159999007	77.6701080999337	0.0999921000329778
86756	100	113	stimuli/animals/dolphin/animal_dolphin07.jpg     	1	2	1	animal_dolphin07.jpg 	animals  	0	dolphin   	12	dolphin07   	126	alive    	1	moves	1	natural 	1	n	0	0        	 	0.0	0	77.7201181999408	77.820099900011	0.0999817000702024
86906	100	114	stimuli/plant2/fern/plant_fern08.jpg             	1	2	1	plant_fern08.jpg     	plant2   	7	fern      	14	fern08      	147	alive    	1	still	0	natural 	1	n	0	0        	 	0.0	0	77.8701246998971	77.9701012999285	0.0999766000313684
87056	100	115	stimuli/nonmovArt/mug/nma_mug08.jpg              	1	2	1	nma_mug08.jpg        	nonmovArt	4	mug       	26	mug08       	267	not_alive	0	still	0	artefact	0	n	0	0        	 	0.0	0	78.0201116999378	78.120107499999	0.0999958000611514
87206	100	116	stimuli/nonmovNat/rock/nmn_rock07.jpg            	1	2	1	nmn_rock07.jpg       	nonmovNat	5	rock      	30	rock07      	306	not_alive	0	still	0	natural 	1	n	0	0        	 	0.0	0	78.170114699984	78.2701243999181	0.100009699934162
87356	100	117	stimuli/animals2/pigeon/animal_pigeon02.jpg      	1	2	1	animal_pigeon02.jpg  	animals2 	1	pigeon    	28	pigeon02    	281	alive    	1	moves	1	natural 	1	n	0	0        	 	0.0	0	78.3201343999244	78.4201293999795	0.0999950000550598
87506	100	118	stimuli/nonmovArt/clothespeg/nma_clothespeg08.jpg	1	2	1	nma_clothespeg08.jpg 	nonmovArt	4	clothespeg	8	clothespeg08	87	not_alive	0	still	0	artefact	0	n	0	0        	 	0.0	0	78.4701308999211	78.5701304000104	0.099999500089325
87656	100	119	stimuli/animals/dolphin/animal_dolphin03.jpg     	1	2	1	animal_dolphin03.jpg 	animals  	0	dolphin   	12	dolphin03   	122	alive    	1	moves	1	natural 	1	n	0	0        	 	0.0	0	78.6201232000021	78.7201220999705	0.099998899968341
87806	100	120	stimuli/nonmovArt/clothespeg/nma_clothespeg05.jpg	1	2	1	nma_clothespeg05.jpg 	nonmovArt	4	clothespeg	8	clothespeg05	84	not_alive	0	still	0	artefact	0	n	0	0        	 	0.0	0	78.7701455999631	78.8701479999581	0.100002399994992
87956	100	121	stimuli/movArt/train/ma_train05.jpg              	1	2	1	ma_train05.jpg       	movArt   	2	train     	34	train05     	344	not_alive	0	moves	1	artefact	0	n	0	0        	 	0.0	0	78.9201490000123	79.0201447999571	0.0999957999447361
88106	100	122	stimuli/plant/vine/plant_vine06.jpg              	1	2	1	plant_vine06.jpg     	plant    	6	vine      	36	vine06      	365	alive    	1	still	0	natural 	1	n	0	0        	 	0.0	0	79.0701380999526	79.1701474000001	0.100009300047532
88256	100	123	stimuli/animals/dog/animal_dog03.jpg             	1	2	1	animal_dog03.jpg     	animals  	0	dog       	11	dog03       	112	alive    	1	moves	1	natural 	1	n	0	0        	 	0.0	0	79.2201504999539	79.3201525999466	0.100002099992707
88406	100	124	stimuli/nonmovArt/mug/nma_mug10.jpg              	1	2	1	nma_mug10.jpg        	nonmovArt	4	mug       	26	mug10       	269	not_alive	0	still	0	artefact	0	n	0	0        	 	0.0	0	79.3701898999279	79.4701543999836	0.0999645000556484
88556	100	125	stimuli/animals2/tiger/animal_tiger04.jpg        	1	2	1	animal_tiger04.jpg   	animals2 	1	tiger     	33	tiger04     	333	alive    	1	moves	1	natural 	1	n	0	0        	 	0.0	0	79.5201663000043	79.6201607999392	0.0999944999348372
88706	100	126	stimuli/movNat/waves/mn_waves08.jpg              	1	2	1	mn_waves08.jpg       	movNat   	3	waves     	38	waves08     	387	not_alive	0	moves	1	natural 	1	n	0	0        	 	0.0	0	79.6701721999561	79.7701492999913	0.0999771000351757
88856	100	127	stimuli/nonmovNat/rock/nmn_rock06.jpg            	1	2	1	nmn_rock06.jpg       	nonmovNat	5	rock      	30	rock06      	305	not_alive	0	still	0	natural 	1	n	0	0        	 	0.0	0	79.8201508999337	79.9201470999978	0.0999962000641972
89006	100	128	stimuli/plant2/moss/plant_moss07.jpg             	1	2	1	plant_moss07.jpg     	plant2   	7	moss      	25	moss07      	256	alive    	1	still	0	natural 	1	n	0	0        	 	0.0	0	79.9701573000057	80.0701511999359	0.0999938999302685
89156	100	129	stimuli/nonmovArt/clothespeg/nma_clothespeg10.jpg	1	2	1	nma_clothespeg10.jpg 	nonmovArt	4	clothespeg	8	clothespeg10	89	not_alive	0	still	0	artefact	0	n	0	0        	 	0.0	0	80.1201620999491	80.2201544999843	0.0999924000352621
89306	100	130	stimuli/movNat/hotspring/mn_hotspring08.jpg      	1	2	1	mn_hotspring08.jpg   	movNat   	3	hotspring 	21	hotspring08 	217	not_alive	0	moves	1	natural 	1	n	0	0        	 	0.0	0	80.2701633999823	80.3701552000129	0.0999918000306934
89456	100	131	stimuli/animals/cat/animal_cat08.jpg             	1	2	1	animal_cat08.jpg     	animals  	0	cat       	6	cat08       	67	alive    	1	moves	1	natural 	1	n	0	0        	 	0.0	0	80.4201672999188	80.5201623999747	0.0999951000558212
89606	100	132	stimuli/nonmovNat/crystal/nmn_crystal07.jpg      	1	2	1	nmn_crystal07.jpg    	nonmovNat	5	crystal   	10	crystal07   	106	not_alive	0	still	0	natural 	1	n	0	0        	 	0.0	0	80.5701725999825	80.6701641000109	0.0999915000284091
89756	100	133	stimuli/animals/dolphin/animal_dolphin06.jpg     	1	2	1	animal_dolphin06.jpg 	animals  	0	dolphin   	12	dolphin06   	125	alive    	1	moves	1	natural 	1	n	0	0        	 	0.0	0	80.7201774999266	80.8201708999695	0.0999934000428766
89906	100	134	stimuli/plant/flower/plant_flower02.jpg          	1	2	1	plant_flower02.jpg   	plant    	6	flower    	16	flower02    	161	alive    	1	still	0	natural 	1	n	0	0        	 	0.0	0	80.8701775999507	80.970172100002	0.0999945000512525
90056	100	135	stimuli/movArt/boat/ma_boat08.jpg                	1	2	1	ma_boat08.jpg        	movArt   	2	boat      	2	boat08      	27	not_alive	0	moves	1	artefact	0	n	0	0        	 	0.0	0	81.0201834999025	81.1201769999461	0.099993500043638
90206	100	136	stimuli/movArt/bus/ma_bus09.jpg                  	1	2	1	ma_bus09.jpg         	movArt   	2	bus       	3	bus09       	38	not_alive	0	moves	1	artefact	0	n	0	0        	 	0.0	0	81.170187599957	81.2701783999801	0.0999908000230789
90356	100	137	stimuli/plant2/fern/plant_fern06.jpg             	1	2	1	plant_fern06.jpg     	plant2   	7	fern      	14	fern06      	145	alive    	1	still	0	natural 	1	n	0	0        	 	0.0	0	81.3201947999187	81.4201859999448	0.0999912000261247
90506	100	138	stimuli/plant2/clover/plant_clover07.jpg         	1	2	1	plant_clover07.jpg   	plant2   	7	clover    	9	clover07    	96	alive    	1	still	0	natural 	1	n	0	0        	 	0.0	0	81.4701945999404	81.5701941999141	0.0999995999736711
90656	100	139	stimuli/nonmovArt/headphones/nma_headphones04.jpg	1	2	1	nma_headphones04.jpg 	nonmovArt	4	headphones	18	headphones04	183	not_alive	0	still	0	artefact	0	n	0	0        	 	0.0	0	81.6202006000094	81.7201730000088	0.0999723999993876
90806	100	140	stimuli/plant/cactus/plant_cactus07.jpg          	1	2	1	plant_cactus07.jpg   	plant    	6	cactus    	4	cactus07    	46	alive    	1	still	0	natural 	1	n	0	0        	 	0.0	0	81.7702020999277	81.8701936999569	0.0999916000291705
90956	100	141	stimuli/nonmovArt/mug/nma_mug01.jpg              	1	2	1	nma_mug01.jpg        	nonmovArt	4	mug       	26	mug01       	260	not_alive	0	still	0	artefact	0	n	0	0        	 	0.0	0	81.9202212999808	82.0202007999178	0.0999794999370351
91106	100	142	stimuli/nonmovNat/shell/nmn_shell10.jpg          	1	2	1	nmn_shell10.jpg      	nonmovNat	5	shell     	32	shell10     	329	not_alive	0	still	0	natural 	1	n	0	0        	 	0.0	0	82.0702092999127	82.1702086000005	0.0999993000878021
91256	100	143	stimuli/plant/cactus/plant_cactus06.jpg          	1	2	1	plant_cactus06.jpg   	plant    	6	cactus    	4	cactus06    	45	alive    	1	still	0	natural 	1	n	0	0        	 	0.0	0	82.2202172999969	82.3202126999386	0.0999953999416903
91406	100	144	stimuli/plant2/clover/plant_clover04.jpg         	1	2	1	plant_clover04.jpg   	plant2   	7	clover    	9	clover04    	93	alive    	1	still	0	natural 	1	n	0	0        	 	0.0	0	82.3702156000072	82.4702102999436	0.0999946999363601
91556	100	145	stimuli/animals/cat/animal_cat05.jpg             	1	2	1	animal_cat05.jpg     	animals  	0	cat       	6	cat05       	64	alive    	1	moves	1	natural 	1	n	0	0        	 	0.0	0	82.5202234999742	82.6202282999875	0.100004800013267
91706	100	146	stimuli/nonmovArt/bench/nma_bench01.jpg          	1	2	1	nma_bench01.jpg      	nonmovArt	4	bench     	1	bench01     	10	not_alive	0	still	0	artefact	0	n	0	0        	 	0.0	0	82.6702255998971	82.7702196999453	0.0999941000482068
91856	100	147	stimuli/plant2/lemontree/plant_lemontree02.jpg   	1	2	1	plant_lemontree02.jpg	plant2   	7	lemontree 	22	lemontree02 	221	alive    	1	still	0	natural 	1	n	0	0        	 	0.0	0	82.8202318999683	82.9202227999922	0.0999909000238404
92006	100	148	stimuli/movNat/waves/mn_waves09.jpg              	1	2	1	mn_waves09.jpg       	movNat   	3	waves     	38	waves09     	388	not_alive	0	moves	1	natural 	1	n	0	0        	 	0.0	0	82.9702367999125	83.0702260999242	0.0999893000116572
92156	100	149	stimuli/nonmovNat/sand/nmn_sand01.jpg            	1	2	1	nmn_sand01.jpg       	nonmovNat	5	sand      	31	sand01      	310	not_alive	0	still	0	natural 	1	n	0	0        	 	0.0	0	83.1202382999472	83.2202320999932	0.0999938000459224
92306	100	150	stimuli/animals/eagle/animal_eagle08.jpg         	1	2	1	animal_eagle08.jpg   	animals  	0	eagle     	13	eagle08     	137	alive    	1	moves	1	natural 	1	n	0	0        	 	0.0	0	83.2702523999614	83.3702334999107	0.0999810999492183
92456	100	151	stimuli/plant2/palmtree/plant_palmtree09.jpg     	1	2	1	plant_palmtree09.jpg 	plant2   	7	palmtree  	27	palmtree09  	278	alive    	1	still	0	natural 	1	n	0	0        	 	0.0	0	83.4202472999459	83.5202420999995	0.0999948000535369
92606	100	152	stimuli/nonmovArt/lock/nma_lock09.jpg            	1	2	1	nma_lock09.jpg       	nonmovArt	4	lock      	24	lock09      	248	not_alive	0	still	0	artefact	0	n	0	0        	 	0.0	0	83.5702535999008	83.6702558000106	0.100002200109884
92756	100	153	stimuli/nonmovArt/lock/nma_lock03.jpg            	1	2	1	nma_lock03.jpg       	nonmovArt	4	lock      	24	lock03      	242	not_alive	0	still	0	artefact	0	n	0	0        	 	0.0	0	83.7202560999431	83.8202504999936	0.0999944000504911
92906	100	154	stimuli/plant/cactus/plant_cactus06.jpg          	1	2	1	plant_cactus06.jpg   	plant    	6	cactus    	4	cactus06    	45	alive    	1	still	0	natural 	1	n	0	0        	 	0.0	0	83.8702607000014	83.9702650000108	0.100004300009459
93056	100	155	stimuli/nonmovArt/headphones/nma_headphones04.jpg	1	2	1	nma_headphones04.jpg 	nonmovArt	4	headphones	18	headphones04	183	not_alive	0	still	0	artefact	0	n	0	0        	 	0.0	0	84.0202643999364	84.120259999996	0.0999956000596285
93206	100	156	stimuli/nonmovArt/clothespeg/nma_clothespeg04.jpg	1	2	1	nma_clothespeg04.jpg 	nonmovArt	4	clothespeg	8	clothespeg04	83	not_alive	0	still	0	artefact	0	n	0	0        	 	0.0	0	84.1702685999917	84.2702594998991	0.099990899907425
93356	100	157	stimuli/plant2/palmtree/plant_palmtree08.jpg     	1	2	1	plant_palmtree08.jpg 	plant2   	7	palmtree  	27	palmtree08  	277	alive    	1	still	0	natural 	1	n	0	0        	 	0.0	0	84.320270499913	84.4202642999589	0.0999938000459224
93506	100	158	stimuli/nonmovNat/crystal/nmn_crystal05.jpg      	1	2	1	nmn_crystal05.jpg    	nonmovNat	5	crystal   	10	crystal05   	104	not_alive	0	still	0	natural 	1	n	0	0        	 	0.0	0	84.4702885999577	84.5702694999054	0.0999808999476954
93656	100	159	stimuli/animals/dolphin/animal_dolphin09.jpg     	1	2	1	animal_dolphin09.jpg 	animals  	0	dolphin   	12	dolphin09   	128	alive    	1	moves	1	natural 	1	n	0	0        	 	0.0	0	84.6202788999071	84.7202713999432	0.0999925000360236
101306	100	160	stimuli/nonmovNat/shell/nmn_shell05.jpg          	1	3	1	nmn_shell05.jpg      	nonmovNat	5	shell     	32	shell05     	324	not_alive	0	still	0	natural 	1	n	0	0        	 	0.0	0	92.2704835999757	92.3704870999791	0.100003500003368
101456	100	161	stimuli/movArt/bus/ma_bus01.jpg                  	1	3	1	ma_bus01.jpg         	movArt   	2	bus       	3	bus01       	30	not_alive	0	moves	1	artefact	0	n	0	0        	 	0.0	0	92.4204859999008	92.5204785999376	0.099992600036785
101606	100	162	stimuli/movArt/boat/ma_boat06.jpg                	1	3	1	ma_boat06.jpg        	movArt   	2	boat      	2	boat06      	25	not_alive	0	moves	1	artefact	0	n	0	0        	 	0.0	0	92.5704903999576	92.670481499983	0.0999911000253633
101756	100	163	stimuli/movNat/hotspring/mn_hotspring07.jpg      	1	3	1	mn_hotspring07.jpg   	movNat   	3	hotspring 	21	hotspring07 	216	not_alive	0	moves	1	natural 	1	n	0	0        	 	0.0	0	92.7204977999208	92.8204883999424	0.099990600021556
101906	100	164	stimuli/plant2/clover/plant_clover01.jpg         	1	3	1	plant_clover01.jpg   	plant2   	7	clover    	9	clover01    	90	alive    	1	still	0	natural 	1	n	0	0        	 	0.0	0	92.8704933999106	92.9705149999354	0.100021600024775
102056	100	165	stimuli/movNat/fire/mn_fire02.jpg                	1	3	1	mn_fire02.jpg        	movNat   	3	fire      	15	fire02      	151	not_alive	0	moves	1	natural 	1	n	0	0        	 	0.0	0	93.020502600004	93.1204945999198	0.099991999915801
102206	100	166	stimuli/movArt/bus/ma_bus02.jpg                  	1	3	1	ma_bus02.jpg         	movArt   	2	bus       	3	bus02       	31	not_alive	0	moves	1	artefact	0	n	0	0        	 	0.0	0	93.1705060999375	93.2704955999507	0.0999895000131801
102356	100	167	stimuli/animals2/bee/animal_bee03.jpg            	1	3	1	animal_bee03.jpg     	animals2 	1	bee       	0	bee03       	2	alive    	1	moves	1	natural 	1	n	0	0        	 	0.0	0	93.3205100999912	93.4205033999169	0.0999932999256998
102506	100	168	stimuli/nonmovNat/shell/nmn_shell01.jpg          	1	3	1	nmn_shell01.jpg      	nonmovNat	5	shell     	32	shell01     	320	not_alive	0	still	0	natural 	1	n	0	0        	 	0.0	0	93.4705124999164	93.5705065999646	0.0999941000482068
102656	100	169	stimuli/animals2/lemur/animal_lemur02.jpg        	1	3	1	animal_lemur02.jpg   	animals2 	1	lemur     	23	lemur02     	231	alive    	1	moves	1	natural 	1	n	0	0        	 	0.0	0	93.6205170999747	93.7205250000116	0.100007900036871
102806	100	170	stimuli/animals/eagle/animal_eagle01.jpg         	1	3	1	animal_eagle01.jpg   	animals  	0	eagle     	13	eagle01     	130	alive    	1	moves	1	natural 	1	n	0	0        	 	0.0	0	93.7705222999211	93.8705125999404	0.0999903000192717
102956	100	171	stimuli/animals2/lemur/animal_lemur08.jpg        	1	3	1	animal_lemur08.jpg   	animals2 	1	lemur     	23	lemur08     	237	alive    	1	moves	1	natural 	1	n	0	0        	 	0.0	0	93.9205255999696	94.0205187000101	0.0999931000405922
103106	100	172	stimuli/movNat/waterfall/mn_waterfall09.jpg      	1	3	1	mn_waterfall09.jpg   	movNat   	3	waterfall 	37	waterfall09 	378	not_alive	0	moves	1	natural 	1	n	0	0        	 	0.0	0	94.0705268000019	94.1705231999513	0.0999963999493048
103256	100	173	stimuli/movNat/waterfall/mn_waterfall07.jpg      	1	3	1	mn_waterfall07.jpg   	movNat   	3	waterfall 	37	waterfall07 	376	not_alive	0	moves	1	natural 	1	n	0	0        	 	0.0	0	94.2205342999659	94.3205294999061	0.0999951999401674
103406	100	174	stimuli/animals2/bee/animal_bee05.jpg            	1	3	1	animal_bee05.jpg     	animals2 	1	bee       	0	bee05       	4	alive    	1	moves	1	natural 	1	n	0	0        	 	0.0	0	94.3705342999892	94.4705285999226	0.0999942999333143
103556	100	175	stimuli/movArt/car/ma_car03.jpg                  	1	3	1	ma_car03.jpg         	movArt   	2	car       	5	car03       	52	not_alive	0	moves	1	artefact	0	n	0	0        	 	0.0	0	94.5205419999547	94.6205349999946	0.0999930000398308
103706	100	176	stimuli/plant2/lemontree/plant_lemontree09.jpg   	1	3	1	plant_lemontree09.jpg	plant2   	7	lemontree 	22	lemontree09 	228	alive    	1	still	0	natural 	1	n	0	0        	 	0.0	0	94.6705447999993	94.7705388999311	0.0999940999317914
103856	100	177	stimuli/animals/dog/animal_dog06.jpg             	1	3	1	animal_dog06.jpg     	animals  	0	dog       	11	dog06       	115	alive    	1	moves	1	natural 	1	n	0	0        	 	0.0	0	94.8205619999208	94.920544499997	0.099982500076294
104006	100	178	stimuli/plant2/fern/plant_fern05.jpg             	1	3	1	plant_fern05.jpg     	plant2   	7	fern      	14	fern05      	144	alive    	1	still	0	natural 	1	n	0	0        	 	0.0	0	94.9705534999957	95.0705454999115	0.099991999915801
104156	100	179	stimuli/animals2/tiger/animal_tiger07.jpg        	1	3	1	animal_tiger07.jpg   	animals2 	1	tiger     	33	tiger07     	336	alive    	1	moves	1	natural 	1	n	0	0        	 	0.0	0	95.120556699927	95.2205529999919	0.0999963000649586
104306	100	180	stimuli/animals2/whale/animal_whale04.jpg        	1	3	1	animal_whale04.jpg   	animals2 	1	whale     	39	whale04     	393	alive    	1	moves	1	natural 	1	n	0	0        	 	0.0	0	95.270560999983	95.3705536999041	0.0999926999211311
104456	100	181	stimuli/movNat/fire/mn_fire01.jpg                	1	3	1	mn_fire01.jpg        	movNat   	3	fire      	15	fire01      	150	not_alive	0	moves	1	natural 	1	n	0	0        	 	0.0	0	95.4205656999256	95.5205586999655	0.0999930000398308
104606	100	182	stimuli/animals2/pigeon/animal_pigeon09.jpg      	1	3	1	animal_pigeon09.jpg  	animals2 	1	pigeon    	28	pigeon09    	288	alive    	1	moves	1	natural 	1	n	0	0        	 	0.0	0	95.5705683999695	95.6705619998975	0.0999935999279842
104756	100	183	stimuli/movNat/fire/mn_fire09.jpg                	1	3	1	mn_fire09.jpg        	movNat   	3	fire      	15	fire09      	158	not_alive	0	moves	1	natural 	1	n	0	0        	 	0.0	0	95.7205705000088	95.8205889000092	0.100018400000408
104906	100	184	stimuli/animals2/whale/animal_whale06.jpg        	1	3	1	animal_whale06.jpg   	animals2 	1	whale     	39	whale06     	395	alive    	1	moves	1	natural 	1	n	0	0        	 	0.0	0	95.8705753999529	95.9705695000012	0.0999941000482068
105056	100	185	stimuli/plant/vine/plant_vine09.jpg              	1	3	1	plant_vine09.jpg     	plant    	6	vine      	36	vine09      	368	alive    	1	still	0	natural 	1	n	0	0        	 	0.0	0	96.0205814999063	96.1205741999438	0.0999927000375465
105206	100	186	stimuli/animals/horse/animal_horse01.jpg         	1	3	1	animal_horse01.jpg   	animals  	0	horse     	20	horse01     	200	alive    	1	moves	1	natural 	1	n	0	0        	 	0.0	0	96.17058549996	96.2705757999793	0.0999903000192717
105356	100	187	stimuli/nonmovNat/rock/nmn_rock05.jpg            	1	3	1	nmn_rock05.jpg       	nonmovNat	5	rock      	30	rock05      	304	not_alive	0	still	0	natural 	1	n	0	0        	 	0.0	0	96.3205920999171	96.4205831999425	0.0999911000253633
105506	100	188	stimuli/nonmovArt/bench/nma_bench04.jpg          	1	3	1	nma_bench04.jpg      	nonmovArt	4	bench     	1	bench04     	13	not_alive	0	still	0	artefact	0	n	0	0        	 	0.0	0	96.4706035999116	96.5705863999901	0.0999828000785783
105656	100	189	stimuli/plant2/moss/plant_moss09.jpg             	1	3	1	plant_moss09.jpg     	plant2   	7	moss      	25	moss09      	258	alive    	1	still	0	natural 	1	n	0	0        	 	0.0	0	96.6205979000078	96.7205891999183	0.0999912999104708
105806	100	190	stimuli/movNat/waves/mn_waves10.jpg              	1	3	1	mn_waves10.jpg       	movNat   	3	waves     	38	waves10     	389	not_alive	0	moves	1	natural 	1	n	0	0        	 	0.0	0	96.7706040999619	96.870592399966	0.0999883000040427
105956	100	191	stimuli/nonmovNat/rock/nmn_rock03.jpg            	1	3	1	nmn_rock03.jpg       	nonmovNat	5	rock      	30	rock03      	302	not_alive	0	still	0	natural 	1	n	1	0        	 	0.0	0	96.9206073000096	97.0206008999375	0.0999935999279842
106106	100	192	stimuli/movNat/river/mn_river04.jpg              	1	3	1	mn_river04.jpg       	movNat   	3	river     	29	river04     	293	not_alive	0	moves	1	natural 	1	n	0	0        	 	0.0	0	97.0706059999066	97.1706031999783	0.0999972000718117
106256	100	193	stimuli/plant2/moss/plant_moss08.jpg             	1	3	1	plant_moss08.jpg     	plant2   	7	moss      	25	moss08      	257	alive    	1	still	0	natural 	1	n	0	1        	f	0.30019859992899	1	97.2206128999824	97.3206056999043	0.0999927999218926
106406	100	194	stimuli/nonmovNat/crystal/nmn_crystal06.jpg      	1	3	1	nmn_crystal06.jpg    	nonmovNat	5	crystal   	10	crystal06   	105	not_alive	0	still	0	natural 	1	n	0	0        	 	0.0	0	97.3706149999052	97.4706108999671	0.0999959000619128
106556	100	195	stimuli/nonmovArt/headphones/nma_headphones02.jpg	1	3	1	nma_headphones02.jpg 	nonmovArt	4	headphones	18	headphones02	181	not_alive	0	still	0	artefact	0	n	0	0        	 	0.0	0	97.5206221999834	97.6206129000056	0.0999907000223175
106706	100	196	stimuli/nonmovNat/cliff/nmn_cliff07.jpg          	1	3	1	nmn_cliff07.jpg      	nonmovNat	5	cliff     	7	cliff07     	76	not_alive	0	still	0	natural 	1	n	0	0        	 	0.0	0	97.6706242999062	97.7706240999978	0.0999998000916094
106856	100	197	stimuli/nonmovNat/cliff/nmn_cliff04.jpg          	1	3	1	nmn_cliff04.jpg      	nonmovNat	5	cliff     	7	cliff04     	73	not_alive	0	still	0	natural 	1	n	0	0        	 	0.0	0	97.8206279999576	97.9206220000051	0.0999940000474453
107006	100	198	stimuli/nonmovArt/bench/nma_bench03.jpg          	1	3	1	nma_bench03.jpg      	nonmovArt	4	bench     	1	bench03     	12	not_alive	0	still	0	artefact	0	n	0	0        	 	0.0	0	97.9706316000084	98.0706236999249	0.0999920999165624
107156	100	199	stimuli/movArt/helicopter/ma_helicopter02.jpg    	1	3	1	ma_helicopter02.jpg  	movArt   	2	helicopter	19	helicopter02	191	not_alive	0	moves	1	artefact	0	n	0	0        	 	0.0	0	98.1206356999464	98.2206418999704	0.100006200023927
107306	100	200	stimuli/animals2/tiger/animal_tiger06.jpg        	1	3	1	animal_tiger06.jpg   	animals2 	1	tiger     	33	tiger06     	335	alive    	1	moves	1	natural 	1	n	0	0        	 	0.0	0	98.2706390999956	98.3706327999244	0.0999936999287456
107456	100	201	stimuli/nonmovNat/sand/nmn_sand08.jpg            	1	3	1	nmn_sand08.jpg       	nonmovNat	5	sand      	31	sand08      	317	not_alive	0	still	0	natural 	1	n	0	0        	 	0.0	0	98.4206444999436	98.5206395999994	0.0999951000558212
107606	100	202	stimuli/animals/horse/animal_horse08.jpg         	1	3	1	animal_horse08.jpg   	animals  	0	horse     	20	horse08     	207	alive    	1	moves	1	natural 	1	n	0	0        	 	0.0	0	98.5706726999488	98.6706381000113	0.0999654000625014
107756	100	203	stimuli/movArt/helicopter/ma_helicopter10.jpg    	1	3	1	ma_helicopter10.jpg  	movArt   	2	helicopter	19	helicopter10	199	not_alive	0	moves	1	artefact	0	n	0	0        	 	0.0	0	98.7206528999377	98.8206461999798	0.0999933000421152
107906	100	204	stimuli/plant/grass/plant_grass06.jpg            	1	3	1	plant_grass06.jpg    	plant    	6	grass     	17	grass06     	175	alive    	1	still	0	natural 	1	n	0	0        	 	0.0	0	98.8706571999937	98.9706601999933	0.10000299999956
108056	100	205	stimuli/movArt/boat/ma_boat04.jpg                	1	3	1	ma_boat04.jpg        	movArt   	2	boat      	2	boat04      	23	not_alive	0	moves	1	artefact	0	n	0	0        	 	0.0	0	99.0206603999249	99.1206573999952	0.0999970000702888
108206	100	206	stimuli/movArt/train/ma_train07.jpg              	1	3	1	ma_train07.jpg       	movArt   	2	train     	34	train07     	346	not_alive	0	moves	1	artefact	0	n	0	0        	 	0.0	0	99.1706657999894	99.2706567000132	0.0999909000238404
108356	100	207	stimuli/movArt/helicopter/ma_helicopter09.jpg    	1	3	1	ma_helicopter09.jpg  	movArt   	2	helicopter	19	helicopter09	198	not_alive	0	moves	1	artefact	0	n	0	0        	 	0.0	0	99.3206705999328	99.4206629999681	0.0999924000352621
108506	100	208	stimuli/plant/grass/plant_grass01.jpg            	1	3	1	plant_grass01.jpg    	plant    	6	grass     	17	grass01     	170	alive    	1	still	0	natural 	1	n	0	0        	 	0.0	0	99.4706700999523	99.5706619999837	0.0999919000314549
108656	100	209	stimuli/animals2/lemur/animal_lemur05.jpg        	1	3	1	animal_lemur05.jpg   	animals2 	1	lemur     	23	lemur05     	234	alive    	1	moves	1	natural 	1	n	0	0        	 	0.0	0	99.6206738000037	99.7206654999172	0.0999916999135166
108806	100	210	stimuli/plant/flower/plant_flower05.jpg          	1	3	1	plant_flower05.jpg   	plant    	6	flower    	16	flower05    	164	alive    	1	still	0	natural 	1	n	0	0        	 	0.0	0	99.770675699925	99.870675599901	0.0999998999759555
108956	100	211	stimuli/animals/eagle/animal_eagle05.jpg         	1	3	1	animal_eagle05.jpg   	animals  	0	eagle     	13	eagle05     	134	alive    	1	moves	1	natural 	1	n	0	0        	 	0.0	0	99.9206783999689	100.020672899904	0.0999944999348372
109106	100	212	stimuli/animals/cat/animal_cat09.jpg             	1	3	1	animal_cat09.jpg     	animals  	0	cat       	6	cat09       	68	alive    	1	moves	1	natural 	1	n	0	0        	 	0.0	0	100.070679099998	100.170675699948	0.0999965999508277
109256	100	213	stimuli/nonmovArt/mug/nma_mug02.jpg              	1	3	1	nma_mug02.jpg        	nonmovArt	4	mug       	26	mug02       	261	not_alive	0	still	0	artefact	0	n	0	0        	 	0.0	0	100.220686899964	100.320681000012	0.0999941000482068
109406	100	214	stimuli/movNat/hotspring/mn_hotspring08.jpg      	1	3	1	mn_hotspring08.jpg   	movNat   	3	hotspring 	21	hotspring08 	217	not_alive	0	moves	1	natural 	1	n	0	0        	 	0.0	0	100.370689800009	100.470682899933	0.0999930999241769
109556	100	215	stimuli/nonmovNat/sand/nmn_sand08.jpg            	1	3	1	nmn_sand08.jpg       	nonmovNat	5	sand      	31	sand08      	317	not_alive	0	still	0	natural 	1	n	0	0        	 	0.0	0	100.520696199965	100.620688499999	0.0999923000345007
109706	100	216	stimuli/animals/dolphin/animal_dolphin02.jpg     	1	3	1	animal_dolphin02.jpg 	animals  	0	dolphin   	12	dolphin02   	121	alive    	1	moves	1	natural 	1	n	0	0        	 	0.0	0	100.670714800013	100.77069299994	0.0999781999271363
109856	100	217	stimuli/nonmovNat/cliff/nmn_cliff05.jpg          	1	3	1	nmn_cliff05.jpg      	nonmovNat	5	cliff     	7	cliff05     	74	not_alive	0	still	0	natural 	1	n	0	0        	 	0.0	0	100.820703299949	100.920704199933	0.10000089998357
110006	100	218	stimuli/movNat/river/mn_river02.jpg              	1	3	1	mn_river02.jpg       	movNat   	3	river     	29	river02     	291	not_alive	0	moves	1	natural 	1	n	0	0        	 	0.0	0	100.970722900005	101.070695800008	0.0999729000031948
110156	100	219	stimuli/plant/vine/plant_vine02.jpg              	1	3	1	plant_vine02.jpg     	plant    	6	vine      	36	vine02      	361	alive    	1	still	0	natural 	1	n	1	0        	 	0.0	0	101.120710099931	101.220703999978	0.0999939000466838
110306	100	220	stimuli/animals2/pigeon/animal_pigeon10.jpg      	1	3	1	animal_pigeon10.jpg  	animals2 	1	pigeon    	28	pigeon10    	289	alive    	1	moves	1	natural 	1	n	0	0        	 	0.0	0	101.270714099985	101.370705400012	0.0999913000268862
110456	100	221	stimuli/plant/tree/plant_tree02.jpg              	1	3	1	plant_tree02.jpg     	plant    	6	tree      	35	tree02      	351	alive    	1	still	0	natural 	1	n	0	1        	f	0.292190800071694	1	101.42071779992	101.520713199978	0.0999954000581056
110606	100	222	stimuli/animals2/bee/animal_bee09.jpg            	1	3	1	animal_bee09.jpg     	animals2 	1	bee       	0	bee09       	8	alive    	1	moves	1	natural 	1	n	0	0        	 	0.0	0	101.570721899974	101.670711199986	0.0999893000116572
110756	100	223	stimuli/plant/tree/plant_tree02.jpg              	1	3	1	plant_tree02.jpg     	plant    	6	tree      	35	tree02      	351	alive    	1	still	0	natural 	1	n	0	0        	 	0.0	0	101.720727199921	101.820718999952	0.0999918000306934
110906	100	224	stimuli/plant/flower/plant_flower06.jpg          	1	3	1	plant_flower06.jpg   	plant    	6	flower    	16	flower06    	165	alive    	1	still	0	natural 	1	n	0	0        	 	0.0	0	101.870742699946	101.970722400001	0.0999797000549734
111056	100	225	stimuli/plant2/fern/plant_fern04.jpg             	1	3	1	plant_fern04.jpg     	plant2   	7	fern      	14	fern04      	143	alive    	1	still	0	natural 	1	n	0	0        	 	0.0	0	102.020735999919	102.120725999936	0.0999900000169873
111206	100	226	stimuli/plant2/palmtree/plant_palmtree04.jpg     	1	3	1	plant_palmtree04.jpg 	plant2   	7	palmtree  	27	palmtree04  	273	alive    	1	still	0	natural 	1	n	0	0        	 	0.0	0	102.170740399975	102.270729099982	0.0999887000070885
111356	100	227	stimuli/animals/horse/animal_horse06.jpg         	1	3	1	animal_horse06.jpg   	animals  	0	horse     	20	horse06     	205	alive    	1	moves	1	natural 	1	n	0	0        	 	0.0	0	102.320742200012	102.420753999962	0.100011799950153
111506	100	228	stimuli/animals2/pigeon/animal_pigeon05.jpg      	1	3	1	animal_pigeon05.jpg  	animals2 	1	pigeon    	28	pigeon05    	284	alive    	1	moves	1	natural 	1	n	0	0        	 	0.0	0	102.470761399949	102.570739199989	0.0999778000405058
111656	100	229	stimuli/movArt/car/ma_car04.jpg                  	1	3	1	ma_car04.jpg         	movArt   	2	car       	5	car04       	53	not_alive	0	moves	1	artefact	0	n	0	0        	 	0.0	0	102.620748599991	102.720743099926	0.0999944999348372
111806	100	230	stimuli/plant/tree/plant_tree05.jpg              	1	3	1	plant_tree05.jpg     	plant    	6	tree      	35	tree05      	354	alive    	1	still	0	natural 	1	n	0	0        	 	0.0	0	102.770753899938	102.870743999956	0.0999901000177488
111956	100	231	stimuli/movNat/waterfall/mn_waterfall08.jpg      	1	3	1	mn_waterfall08.jpg   	movNat   	3	waterfall 	37	waterfall08 	377	not_alive	0	moves	1	natural 	1	n	0	0        	 	0.0	0	102.920758699998	103.020771899959	0.100013199960813
112106	100	232	stimuli/movArt/car/ma_car02.jpg                  	1	3	1	ma_car02.jpg         	movArt   	2	car       	5	car02       	51	not_alive	0	moves	1	artefact	0	n	0	0        	 	0.0	0	103.070758599904	103.170754499966	0.0999959000619128
112256	100	233	stimuli/movNat/river/mn_river04.jpg              	1	3	1	mn_river04.jpg       	movNat   	3	river     	29	river04     	293	not_alive	0	moves	1	natural 	1	n	0	0        	 	0.0	0	103.220768200001	103.320759499911	0.0999912999104708
112406	100	234	stimuli/movArt/train/ma_train10.jpg              	1	3	1	ma_train10.jpg       	movArt   	2	train     	34	train10     	349	not_alive	0	moves	1	artefact	0	n	0	0        	 	0.0	0	103.370767099899	103.470762599958	0.099995500058867
112556	100	235	stimuli/nonmovArt/lock/nma_lock04.jpg            	1	3	1	nma_lock04.jpg       	nonmovArt	4	lock      	24	lock04      	243	not_alive	0	still	0	artefact	0	n	0	0        	 	0.0	0	103.520773199969	103.620765700005	0.0999925000360236
112706	100	236	stimuli/animals/dog/animal_dog04.jpg             	1	3	1	animal_dog04.jpg     	animals  	0	dog       	11	dog04       	113	alive    	1	moves	1	natural 	1	n	0	0        	 	0.0	0	103.670777099906	103.770770799951	0.099993700045161
112856	100	237	stimuli/plant2/lemontree/plant_lemontree02.jpg   	1	3	1	plant_lemontree02.jpg	plant2   	7	lemontree 	22	lemontree02 	221	alive    	1	still	0	natural 	1	n	0	0        	 	0.0	0	103.820782999974	103.920774099999	0.0999911000253633
113006	100	238	stimuli/plant/grass/plant_grass06.jpg            	1	3	1	plant_grass06.jpg    	plant    	6	grass     	17	grass06     	175	alive    	1	still	0	natural 	1	n	0	0        	 	0.0	0	103.970805699937	104.070782999974	0.0999773000366986
113156	100	239	stimuli/animals2/whale/animal_whale04.jpg        	1	3	1	animal_whale04.jpg   	animals2 	1	whale     	39	whale04     	393	alive    	1	moves	1	natural 	1	n	0	0        	 	0.0	0	104.120789599954	104.220784300007	0.0999947000527754
124140	100	240	stimuli/plant2/palmtree/plant_palmtree04.jpg     	1	4	1	plant_palmtree04.jpg 	plant2   	7	palmtree  	27	palmtree04  	273	alive    	1	still	0	natural 	1	n	0	0        	 	0.0	0	115.104424499907	115.204413599917	0.0999891000101343
124290	100	241	stimuli/animals/horse/animal_horse04.jpg         	1	4	1	animal_horse04.jpg   	animals  	0	horse     	20	horse04     	203	alive    	1	moves	1	natural 	1	n	0	0        	 	0.0	0	115.254425899941	115.35441759997	0.099991700029932
124440	100	242	stimuli/plant2/lemontree/plant_lemontree10.jpg   	1	4	1	plant_lemontree10.jpg	plant2   	7	lemontree 	22	lemontree10 	229	alive    	1	still	0	natural 	1	n	0	0        	 	0.0	0	115.404425999965	115.504422899918	0.099996899953112
124590	100	243	stimuli/nonmovNat/cliff/nmn_cliff06.jpg          	1	4	1	nmn_cliff06.jpg      	nonmovNat	5	cliff     	7	cliff06     	75	not_alive	0	still	0	natural 	1	n	0	0        	 	0.0	0	115.554431799916	115.654425799963	0.0999940000474453
124740	100	244	stimuli/animals2/whale/animal_whale10.jpg        	1	4	1	animal_whale10.jpg   	animals2 	1	whale     	39	whale10     	399	alive    	1	moves	1	natural 	1	n	0	0        	 	0.0	0	115.704435599968	115.804427900002	0.0999923000345007
124890	100	245	stimuli/nonmovArt/clothespeg/nma_clothespeg07.jpg	1	4	1	nma_clothespeg07.jpg 	nonmovArt	4	clothespeg	8	clothespeg07	86	not_alive	0	still	0	artefact	0	n	0	0        	 	0.0	0	115.854438999901	115.954434499959	0.099995500058867
125040	100	246	stimuli/nonmovNat/rock/nmn_rock08.jpg            	1	4	1	nmn_rock08.jpg       	nonmovNat	5	rock      	30	rock08      	307	not_alive	0	still	0	natural 	1	n	0	0        	 	0.0	0	116.00445509993	116.104437300004	0.0999822000740096
125190	100	247	stimuli/animals/dog/animal_dog01.jpg             	1	4	1	animal_dog01.jpg     	animals  	0	dog       	11	dog01       	110	alive    	1	moves	1	natural 	1	n	0	0        	 	0.0	0	116.154446800007	116.254441899946	0.0999950999394059
125340	100	248	stimuli/plant/flower/plant_flower07.jpg          	1	4	1	plant_flower07.jpg   	plant    	6	flower    	16	flower07    	166	alive    	1	still	0	natural 	1	n	0	0        	 	0.0	0	116.304453799967	116.404458499979	0.100004700012505
125490	100	249	stimuli/animals2/bee/animal_bee06.jpg            	1	4	1	animal_bee06.jpg     	animals2 	1	bee       	0	bee06       	5	alive    	1	moves	1	natural 	1	n	0	0        	 	0.0	0	116.454455500003	116.554459700012	0.100004200008698
125640	100	250	stimuli/movNat/hotspring/mn_hotspring05.jpg      	1	4	1	mn_hotspring05.jpg   	movNat   	3	hotspring 	21	hotspring05 	214	not_alive	0	moves	1	natural 	1	n	0	0        	 	0.0	0	116.604458799935	116.704450899968	0.0999921000329778
125790	100	251	stimuli/nonmovNat/cliff/nmn_cliff01.jpg          	1	4	1	nmn_cliff01.jpg      	nonmovNat	5	cliff     	7	cliff01     	70	not_alive	0	still	0	natural 	1	n	1	0        	 	0.0	0	116.754465500009	116.854461099952	0.0999955999432132
125940	100	252	stimuli/plant/flower/plant_flower08.jpg          	1	4	1	plant_flower08.jpg   	plant    	6	flower    	16	flower08    	167	alive    	1	still	0	natural 	1	n	0	0        	 	0.0	0	116.904467499931	117.004457199946	0.099989700014703
126090	100	253	stimuli/nonmovNat/rock/nmn_rock08.jpg            	1	4	1	nmn_rock08.jpg       	nonmovNat	5	rock      	30	rock08      	307	not_alive	0	still	0	natural 	1	n	0	1        	f	0.391987199895084	1	117.054466599948	117.154460399994	0.0999938000459224
126240	100	254	stimuli/nonmovArt/mug/nma_mug05.jpg              	1	4	1	nma_mug05.jpg        	nonmovArt	4	mug       	26	mug05       	264	not_alive	0	still	0	artefact	0	n	0	0        	 	0.0	0	117.204470900004	117.30446429993	0.0999933999264613
126390	100	255	stimuli/animals2/whale/animal_whale08.jpg        	1	4	1	animal_whale08.jpg   	animals2 	1	whale     	39	whale08     	397	alive    	1	moves	1	natural 	1	n	0	0        	 	0.0	0	117.354490199941	117.45446509996	0.0999749000184238
126540	100	256	stimuli/animals2/pigeon/animal_pigeon01.jpg      	1	4	1	animal_pigeon01.jpg  	animals2 	1	pigeon    	28	pigeon01    	280	alive    	1	moves	1	natural 	1	n	0	0        	 	0.0	0	117.504480500007	117.604471299914	0.0999907999066636
126690	100	257	stimuli/nonmovNat/crystal/nmn_crystal05.jpg      	1	4	1	nmn_crystal05.jpg    	nonmovNat	5	crystal   	10	crystal05   	104	not_alive	0	still	0	natural 	1	n	0	0        	 	0.0	0	117.654482299928	117.75447429996	0.0999920000322163
126840	100	258	stimuli/movArt/car/ma_car07.jpg                  	1	4	1	ma_car07.jpg         	movArt   	2	car       	5	car07       	56	not_alive	0	moves	1	artefact	0	n	0	0        	 	0.0	0	117.804483899963	117.904487499967	0.100003600004129
126990	100	259	stimuli/plant2/moss/plant_moss01.jpg             	1	4	1	plant_moss01.jpg     	plant2   	7	moss      	25	moss01      	250	alive    	1	still	0	natural 	1	n	0	0        	 	0.0	0	117.954496099963	118.054503899999	0.10000780003611
127140	100	260	stimuli/plant2/fern/plant_fern07.jpg             	1	4	1	plant_fern07.jpg     	plant2   	7	fern      	14	fern07      	146	alive    	1	still	0	natural 	1	n	0	0        	 	0.0	0	118.104499899899	118.20449569996	0.0999958000611514
127290	100	261	stimuli/nonmovArt/headphones/nma_headphones08.jpg	1	4	1	nma_headphones08.jpg 	nonmovArt	4	headphones	18	headphones08	187	not_alive	0	still	0	artefact	0	n	0	0        	 	0.0	0	118.25450489996	118.354497599998	0.0999927000375465
127440	100	262	stimuli/movNat/river/mn_river06.jpg              	1	4	1	mn_river06.jpg       	movNat   	3	river     	29	river06     	295	not_alive	0	moves	1	natural 	1	n	0	0        	 	0.0	0	118.4045092999	118.50450359995	0.0999943000497296
127590	100	263	stimuli/nonmovArt/clothespeg/nma_clothespeg01.jpg	1	4	1	nma_clothespeg01.jpg 	nonmovArt	4	clothespeg	8	clothespeg01	80	not_alive	0	still	0	artefact	0	n	0	0        	 	0.0	0	118.55451139994	118.65450309997	0.099991700029932
127740	100	264	stimuli/animals2/tiger/animal_tiger03.jpg        	1	4	1	animal_tiger03.jpg   	animals2 	1	tiger     	33	tiger03     	332	alive    	1	moves	1	natural 	1	n	0	0        	 	0.0	0	118.704516099999	118.804509499925	0.0999933999264613
127890	100	265	stimuli/animals2/tiger/animal_tiger02.jpg        	1	4	1	animal_tiger02.jpg   	animals2 	1	tiger     	33	tiger02     	331	alive    	1	moves	1	natural 	1	n	0	0        	 	0.0	0	118.854518299922	118.954513499979	0.0999952000565827
128040	100	266	stimuli/movArt/helicopter/ma_helicopter01.jpg    	1	4	1	ma_helicopter01.jpg  	movArt   	2	helicopter	19	helicopter01	190	not_alive	0	moves	1	artefact	0	n	1	0        	 	0.0	0	119.004537799978	119.104517599917	0.0999797999393195
128190	100	267	stimuli/plant/vine/plant_vine07.jpg              	1	4	1	plant_vine07.jpg     	plant    	6	vine      	36	vine07      	366	alive    	1	still	0	natural 	1	n	0	0        	 	0.0	0	119.154525699909	119.254522199975	0.0999965000664815
128340	100	268	stimuli/animals/cat/animal_cat03.jpg             	1	4	1	animal_cat03.jpg     	animals  	0	cat       	6	cat03       	62	alive    	1	moves	1	natural 	1	n	0	1        	f	0.392037399928086	1	119.304531299975	119.4045245999	0.0999932999256998
128490	100	269	stimuli/movArt/boat/ma_boat06.jpg                	1	4	1	ma_boat06.jpg        	movArt   	2	boat      	2	boat06      	25	not_alive	0	moves	1	artefact	0	n	1	0        	 	0.0	0	119.454548599897	119.554530799971	0.0999822000740096
128640	100	270	stimuli/nonmovArt/clothespeg/nma_clothespeg06.jpg	1	4	1	nma_clothespeg06.jpg 	nonmovArt	4	clothespeg	8	clothespeg06	85	not_alive	0	still	0	artefact	0	n	0	0        	 	0.0	0	119.604537299951	119.704532700009	0.0999954000581056
128790	100	271	stimuli/movNat/waterfall/mn_waterfall04.jpg      	1	4	1	mn_waterfall04.jpg   	movNat   	3	waterfall 	37	waterfall04 	373	not_alive	0	moves	1	natural 	1	n	1	0        	 	0.0	0	119.75454210001	119.854534399929	0.0999922999180853
128940	100	272	stimuli/movArt/boat/ma_boat10.jpg                	1	4	1	ma_boat10.jpg        	movArt   	2	boat      	2	boat10      	29	not_alive	0	moves	1	artefact	0	n	0	1        	f	0.142150599975139	1	119.904547199956	120.004541500006	0.0999943000497296
129090	100	273	stimuli/movNat/hotspring/mn_hotspring05.jpg      	1	4	1	mn_hotspring05.jpg   	movNat   	3	hotspring 	21	hotspring05 	214	not_alive	0	moves	1	natural 	1	n	0	0        	 	0.0	0	120.0545520999	120.154544299934	0.0999922000337392
129240	100	274	stimuli/animals2/tiger/animal_tiger09.jpg        	1	4	1	animal_tiger09.jpg   	animals2 	1	tiger     	33	tiger09     	338	alive    	1	moves	1	natural 	1	n	0	0        	 	0.0	0	120.204554899945	120.304549599998	0.0999947000527754
129390	100	275	stimuli/movArt/helicopter/ma_helicopter03.jpg    	1	4	1	ma_helicopter03.jpg  	movArt   	2	helicopter	19	helicopter03	192	not_alive	0	moves	1	artefact	0	n	0	0        	 	0.0	0	120.354558199993	120.454552799929	0.0999945999355987
129540	100	276	stimuli/plant/grass/plant_grass02.jpg            	1	4	1	plant_grass02.jpg    	plant    	6	grass     	17	grass02     	171	alive    	1	still	0	natural 	1	n	0	0        	 	0.0	0	120.504564499948	120.604558299994	0.0999938000459224
129690	100	277	stimuli/movNat/waves/mn_waves03.jpg              	1	4	1	mn_waves03.jpg       	movNat   	3	waves     	38	waves03     	382	not_alive	0	moves	1	natural 	1	n	0	0        	 	0.0	0	120.654578499962	120.754562599934	0.0999840999720618
129840	100	278	stimuli/animals2/pigeon/animal_pigeon02.jpg      	1	4	1	animal_pigeon02.jpg  	animals2 	1	pigeon    	28	pigeon02    	281	alive    	1	moves	1	natural 	1	n	0	0        	 	0.0	0	120.804573099944	120.904564899975	0.0999918000306934
129990	100	279	stimuli/nonmovArt/bench/nma_bench02.jpg          	1	4	1	nma_bench02.jpg      	nonmovArt	4	bench     	1	bench02     	11	not_alive	0	still	0	artefact	0	n	0	0        	 	0.0	0	120.954576599994	121.054572999943	0.0999963999493048
130140	100	280	stimuli/plant/cactus/plant_cactus01.jpg          	1	4	1	plant_cactus01.jpg   	plant    	6	cactus    	4	cactus01    	40	alive    	1	still	0	natural 	1	n	0	0        	 	0.0	0	121.10457919992	121.204575499985	0.0999963000649586
130290	100	281	stimuli/nonmovNat/shell/nmn_shell09.jpg          	1	4	1	nmn_shell09.jpg      	nonmovNat	5	shell     	32	shell09     	328	not_alive	0	still	0	natural 	1	n	0	0        	 	0.0	0	121.254593499936	121.354576999904	0.0999834999674931
130440	100	282	stimuli/movArt/car/ma_car03.jpg                  	1	4	1	ma_car03.jpg         	movArt   	2	car       	5	car03       	52	not_alive	0	moves	1	artefact	0	n	0	0        	 	0.0	0	121.404586599907	121.50457999995	0.0999934000428766
130590	100	283	stimuli/movArt/bus/ma_bus08.jpg                  	1	4	1	ma_bus08.jpg         	movArt   	2	bus       	3	bus08       	37	not_alive	0	moves	1	artefact	0	n	0	0        	 	0.0	0	121.554617599933	121.654585399898	0.0999677999643609
130740	100	284	stimuli/plant/grass/plant_grass09.jpg            	1	4	1	plant_grass09.jpg    	plant    	6	grass     	17	grass09     	178	alive    	1	still	0	natural 	1	n	0	0        	 	0.0	0	121.704596099909	121.804588399944	0.0999923000345007
130890	100	285	stimuli/plant2/clover/plant_clover08.jpg         	1	4	1	plant_clover08.jpg   	plant2   	7	clover    	9	clover08    	97	alive    	1	still	0	natural 	1	n	0	0        	 	0.0	0	121.854598099948	121.954591599992	0.099993500043638
131040	100	286	stimuli/movArt/bus/ma_bus10.jpg                  	1	4	1	ma_bus10.jpg         	movArt   	2	bus       	3	bus10       	39	not_alive	0	moves	1	artefact	0	n	0	0        	 	0.0	0	122.004601299996	122.104596799938	0.0999954999424517
131190	100	287	stimuli/plant2/palmtree/plant_palmtree10.jpg     	1	4	1	plant_palmtree10.jpg 	plant2   	7	palmtree  	27	palmtree10  	279	alive    	1	still	0	natural 	1	n	0	0        	 	0.0	0	122.154607999953	122.254601499997	0.099993500043638
131340	100	288	stimuli/animals2/pigeon/animal_pigeon05.jpg      	1	4	1	animal_pigeon05.jpg  	animals2 	1	pigeon    	28	pigeon05    	284	alive    	1	moves	1	natural 	1	n	0	0        	 	0.0	0	122.304609999992	122.40460629994	0.0999962999485433
131490	100	289	stimuli/plant/vine/plant_vine07.jpg              	1	4	1	plant_vine07.jpg     	plant    	6	vine      	36	vine07      	366	alive    	1	still	0	natural 	1	n	0	0        	 	0.0	0	122.454614599934	122.554611300002	0.0999967000680044
131640	100	290	stimuli/movArt/helicopter/ma_helicopter04.jpg    	1	4	1	ma_helicopter04.jpg  	movArt   	2	helicopter	19	helicopter04	193	not_alive	0	moves	1	artefact	0	n	0	0        	 	0.0	0	122.604628299945	122.704615199938	0.0999868999933824
131790	100	291	stimuli/nonmovArt/headphones/nma_headphones03.jpg	1	4	1	nma_headphones03.jpg 	nonmovArt	4	headphones	18	headphones03	182	not_alive	0	still	0	artefact	0	n	0	0        	 	0.0	0	122.754623999936	122.854621200007	0.0999972000718117
131940	100	292	stimuli/movArt/train/ma_train02.jpg              	1	4	1	ma_train02.jpg       	movArt   	2	train     	34	train02     	341	not_alive	0	moves	1	artefact	0	n	0	0        	 	0.0	0	122.904626499978	123.004618600011	0.0999921000329778
132090	100	293	stimuli/nonmovArt/mug/nma_mug06.jpg              	1	4	1	nma_mug06.jpg        	nonmovArt	4	mug       	26	mug06       	265	not_alive	0	still	0	artefact	0	n	0	0        	 	0.0	0	123.054629899911	123.154626099975	0.0999962000641972
132240	100	294	stimuli/plant2/lemontree/plant_lemontree10.jpg   	1	4	1	plant_lemontree10.jpg	plant2   	7	lemontree 	22	lemontree10 	229	alive    	1	still	0	natural 	1	n	0	0        	 	0.0	0	123.204636599985	123.304632999934	0.0999963999493048
132390	100	295	stimuli/movArt/bus/ma_bus08.jpg                  	1	4	1	ma_bus08.jpg         	movArt   	2	bus       	3	bus08       	37	not_alive	0	moves	1	artefact	0	n	0	0        	 	0.0	0	123.354637499899	123.454633999965	0.0999965000664815
132540	100	296	stimuli/movNat/fire/mn_fire02.jpg                	1	4	1	mn_fire02.jpg        	movNat   	3	fire      	15	fire02      	151	not_alive	0	moves	1	natural 	1	n	0	0        	 	0.0	0	123.504642099957	123.604635900003	0.0999938000459224
132690	100	297	stimuli/nonmovArt/mug/nma_mug08.jpg              	1	4	1	nma_mug08.jpg        	nonmovArt	4	mug       	26	mug08       	267	not_alive	0	still	0	artefact	0	n	0	0        	 	0.0	0	123.654645700008	123.754640599946	0.099994899937883
132840	100	298	stimuli/plant2/moss/plant_moss03.jpg             	1	4	1	plant_moss03.jpg     	plant2   	7	moss      	25	moss03      	252	alive    	1	still	0	natural 	1	n	0	0        	 	0.0	0	123.804654699983	123.904657699983	0.10000299999956
132990	100	299	stimuli/plant2/moss/plant_moss10.jpg             	1	4	1	plant_moss10.jpg     	plant2   	7	moss      	25	moss10      	259	alive    	1	still	0	natural 	1	n	0	0        	 	0.0	0	123.954658399918	124.054652699968	0.0999943000497296
133140	100	300	stimuli/movArt/train/ma_train09.jpg              	1	4	1	ma_train09.jpg       	movArt   	2	train     	34	train09     	348	not_alive	0	moves	1	artefact	0	n	0	0        	 	0.0	0	124.104658499942	124.204654800007	0.0999963000649586
133290	100	301	stimuli/movNat/waterfall/mn_waterfall05.jpg      	1	4	1	mn_waterfall05.jpg   	movNat   	3	waterfall 	37	waterfall05 	374	not_alive	0	moves	1	natural 	1	n	0	0        	 	0.0	0	124.254662599997	124.354656799929	0.0999941999325529
133440	100	302	stimuli/nonmovNat/shell/nmn_shell02.jpg          	1	4	1	nmn_shell02.jpg      	nonmovNat	5	shell     	32	shell02     	321	not_alive	0	still	0	natural 	1	n	0	0        	 	0.0	0	124.404667799943	124.504656399949	0.099988600006327
133590	100	303	stimuli/animals/dog/animal_dog03.jpg             	1	4	1	animal_dog03.jpg     	animals  	0	dog       	11	dog03       	112	alive    	1	moves	1	natural 	1	n	0	0        	 	0.0	0	124.55469229992	124.654685699963	0.0999934000428766
133740	100	304	stimuli/nonmovNat/crystal/nmn_crystal07.jpg      	1	4	1	nmn_crystal07.jpg    	nonmovNat	5	crystal   	10	crystal07   	106	not_alive	0	still	0	natural 	1	n	0	0        	 	0.0	0	124.704693699954	124.804715099977	0.100021400023252
133890	100	305	stimuli/nonmovNat/shell/nmn_shell10.jpg          	1	4	1	nmn_shell10.jpg      	nonmovNat	5	shell     	32	shell10     	329	not_alive	0	still	0	natural 	1	n	0	0        	 	0.0	0	124.854708799976	124.954688699916	0.0999798999400809
134040	100	306	stimuli/animals/eagle/animal_eagle08.jpg         	1	4	1	animal_eagle08.jpg   	animals  	0	eagle     	13	eagle08     	137	alive    	1	moves	1	natural 	1	n	0	0        	 	0.0	0	125.004682999919	125.104675299954	0.0999923000345007
134190	100	307	stimuli/plant2/palmtree/plant_palmtree02.jpg     	1	4	1	plant_palmtree02.jpg 	plant2   	7	palmtree  	27	palmtree02  	271	alive    	1	still	0	natural 	1	n	0	0        	 	0.0	0	125.154685599962	125.254679300007	0.099993700045161
134340	100	308	stimuli/animals/eagle/animal_eagle09.jpg         	1	4	1	animal_eagle09.jpg   	animals  	0	eagle     	13	eagle09     	138	alive    	1	moves	1	natural 	1	n	0	0        	 	0.0	0	125.304695499945	125.404688699986	0.0999932000413537
134490	100	309	stimuli/movArt/boat/ma_boat01.jpg                	1	4	1	ma_boat01.jpg        	movArt   	2	boat      	2	boat01      	20	not_alive	0	moves	1	artefact	0	n	0	0        	 	0.0	0	125.45469709998	125.554691899917	0.0999947999371216
134640	100	310	stimuli/plant/cactus/plant_cactus04.jpg          	1	4	1	plant_cactus04.jpg   	plant    	6	cactus    	4	cactus04    	43	alive    	1	still	0	natural 	1	n	0	0        	 	0.0	0	125.6046987999	125.704690699931	0.0999919000314549
134790	100	311	stimuli/animals/horse/animal_horse04.jpg         	1	4	1	animal_horse04.jpg   	animals  	0	horse     	20	horse04     	203	alive    	1	moves	1	natural 	1	n	0	0        	 	0.0	0	125.754702599952	125.854693899979	0.0999913000268862
134940	100	312	stimuli/animals/dolphin/animal_dolphin01.jpg     	1	4	1	animal_dolphin01.jpg 	animals  	0	dolphin   	12	dolphin01   	120	alive    	1	moves	1	natural 	1	n	0	0        	 	0.0	0	125.904712999938	126.004700199934	0.0999871999956667
135090	100	313	stimuli/nonmovNat/sand/nmn_sand07.jpg            	1	4	1	nmn_sand07.jpg       	nonmovNat	5	sand      	31	sand07      	316	not_alive	0	still	0	natural 	1	n	0	0        	 	0.0	0	126.054709599935	126.154705399997	0.0999958000611514
135240	100	314	stimuli/nonmovNat/sand/nmn_sand01.jpg            	1	4	1	nmn_sand01.jpg       	nonmovNat	5	sand      	31	sand01      	310	not_alive	0	still	0	natural 	1	n	0	0        	 	0.0	0	126.2047171999	126.304707399919	0.0999902000185102
135390	100	315	stimuli/animals2/whale/animal_whale01.jpg        	1	4	1	animal_whale01.jpg   	animals2 	1	whale     	39	whale01     	390	alive    	1	moves	1	natural 	1	n	0	0        	 	0.0	0	126.354714899906	126.454712699982	0.0999978000763804
135540	100	316	stimuli/animals/cat/animal_cat03.jpg             	1	4	1	animal_cat03.jpg     	animals  	0	cat       	6	cat03       	62	alive    	1	moves	1	natural 	1	n	0	0        	 	0.0	0	126.504722199985	126.604715099907	0.099992899922654
135690	100	317	stimuli/nonmovNat/cliff/nmn_cliff06.jpg          	1	4	1	nmn_cliff06.jpg      	nonmovNat	5	cliff     	7	cliff06     	75	not_alive	0	still	0	natural 	1	n	0	0        	 	0.0	0	126.654723899905	126.754720799974	0.0999969000695273
135840	100	318	stimuli/animals/dolphin/animal_dolphin08.jpg     	1	4	1	animal_dolphin08.jpg 	animals  	0	dolphin   	12	dolphin08   	127	alive    	1	moves	1	natural 	1	n	0	0        	 	0.0	0	126.80473069998	126.90472459991	0.0999938999302685
135990	100	319	stimuli/nonmovArt/lock/nma_lock09.jpg            	1	4	1	nma_lock09.jpg       	nonmovArt	4	lock      	24	lock09      	248	not_alive	0	still	0	artefact	0	n	0	0        	 	0.0	0	126.954734999919	127.054729899974	0.0999949000542983
143524	100	320	stimuli/plant2/clover/plant_clover08.jpg         	1	5	1	plant_clover08.jpg   	plant2   	7	clover    	9	clover08    	97	alive    	1	still	0	natural 	1	n	0	0        	 	0.0	0	134.488268599962	134.588264299906	0.0999956999439746
143674	100	321	stimuli/animals/horse/animal_horse05.jpg         	1	5	1	animal_horse05.jpg   	animals  	0	horse     	20	horse05     	204	alive    	1	moves	1	natural 	1	n	0	0        	 	0.0	0	134.638274999917	134.738269599969	0.099994600052014
143824	100	322	stimuli/plant2/fern/plant_fern03.jpg             	1	5	1	plant_fern03.jpg     	plant2   	7	fern      	14	fern03      	142	alive    	1	still	0	natural 	1	n	0	0        	 	0.0	0	134.788274999941	134.888268399984	0.0999934000428766
143974	100	323	stimuli/animals/dolphin/animal_dolphin09.jpg     	1	5	1	animal_dolphin09.jpg 	animals  	0	dolphin   	12	dolphin09   	128	alive    	1	moves	1	natural 	1	n	0	0        	 	0.0	0	134.938280500006	135.038271999918	0.0999914999119937
144124	100	324	stimuli/plant/tree/plant_tree10.jpg              	1	5	1	plant_tree10.jpg     	plant    	6	tree      	35	tree10      	359	alive    	1	still	0	natural 	1	n	0	0        	 	0.0	0	135.088282999932	135.188277999987	0.0999950000550598
144274	100	325	stimuli/plant/vine/plant_vine06.jpg              	1	5	1	plant_vine06.jpg     	plant    	6	vine      	36	vine06      	365	alive    	1	still	0	natural 	1	n	0	0        	 	0.0	0	135.238290500012	135.33828139992	0.099990899907425
144424	100	326	stimuli/movNat/river/mn_river05.jpg              	1	5	1	mn_river05.jpg       	movNat   	3	river     	29	river05     	294	not_alive	0	moves	1	natural 	1	n	0	0        	 	0.0	0	135.388287599897	135.488278799923	0.0999912000261247
144574	100	327	stimuli/nonmovArt/bench/nma_bench06.jpg          	1	5	1	nma_bench06.jpg      	nonmovArt	4	bench     	1	bench06     	15	not_alive	0	still	0	artefact	0	n	0	0        	 	0.0	0	135.538285699906	135.638307699934	0.10002200002782
144724	100	328	stimuli/movArt/train/ma_train07.jpg              	1	5	1	ma_train07.jpg       	movArt   	2	train     	34	train07     	346	not_alive	0	moves	1	artefact	0	n	0	0        	 	0.0	0	135.688294899999	135.788285599905	0.0999906999059022
144874	100	329	stimuli/plant/flower/plant_flower07.jpg          	1	5	1	plant_flower07.jpg   	plant    	6	flower    	16	flower07    	166	alive    	1	still	0	natural 	1	n	0	0        	 	0.0	0	135.838295999914	135.938292799983	0.0999968000687659
145024	100	330	stimuli/animals2/lemur/animal_lemur06.jpg        	1	5	1	animal_lemur06.jpg   	animals2 	1	lemur     	23	lemur06     	235	alive    	1	moves	1	natural 	1	n	0	0        	 	0.0	0	135.988299599965	136.088292800006	0.0999932000413537
145174	100	331	stimuli/movNat/river/mn_river09.jpg              	1	5	1	mn_river09.jpg       	movNat   	3	river     	29	river09     	298	not_alive	0	moves	1	natural 	1	n	0	0        	 	0.0	0	136.138304899912	136.238297899952	0.0999930000398308
145324	100	332	stimuli/nonmovArt/bench/nma_bench09.jpg          	1	5	1	nma_bench09.jpg      	nonmovArt	4	bench     	1	bench09     	18	not_alive	0	still	0	artefact	0	n	0	0        	 	0.0	0	136.288312299992	136.388329999987	0.100017699995078
145474	100	333	stimuli/movNat/waves/mn_waves02.jpg              	1	5	1	mn_waves02.jpg       	movNat   	3	waves     	38	waves02     	381	not_alive	0	moves	1	natural 	1	n	0	0        	 	0.0	0	136.438309899997	136.538310999982	0.100001099985093
145624	100	334	stimuli/animals/eagle/animal_eagle05.jpg         	1	5	1	animal_eagle05.jpg   	animals  	0	eagle     	13	eagle05     	134	alive    	1	moves	1	natural 	1	n	0	0        	 	0.0	0	136.588316899957	136.6883103	0.0999934000428766
145774	100	335	stimuli/nonmovNat/sand/nmn_sand01.jpg            	1	5	1	nmn_sand01.jpg       	nonmovNat	5	sand      	31	sand01      	310	not_alive	0	still	0	natural 	1	n	0	0        	 	0.0	0	136.738320500008	136.83831199992	0.0999914999119937
145924	100	336	stimuli/animals2/bee/animal_bee01.jpg            	1	5	1	animal_bee01.jpg     	animals2 	1	bee       	0	bee01       	0	alive    	1	moves	1	natural 	1	n	0	0        	 	0.0	0	136.888327299966	136.988359699957	0.100032399990596
146074	100	337	stimuli/movArt/car/ma_car02.jpg                  	1	5	1	ma_car02.jpg         	movArt   	2	car       	5	car02       	51	not_alive	0	moves	1	artefact	0	n	0	0        	 	0.0	0	137.0383287	137.138343399973	0.100014699972235
146224	100	338	stimuli/movNat/waterfall/mn_waterfall03.jpg      	1	5	1	mn_waterfall03.jpg   	movNat   	3	waterfall 	37	waterfall03 	372	not_alive	0	moves	1	natural 	1	n	0	0        	 	0.0	0	137.188331999932	137.288328099996	0.0999961000634357
146374	100	339	stimuli/plant2/fern/plant_fern10.jpg             	1	5	1	plant_fern10.jpg     	plant2   	7	fern      	14	fern10      	149	alive    	1	still	0	natural 	1	n	0	0        	 	0.0	0	137.338337399997	137.438331599929	0.0999941999325529
146524	100	340	stimuli/plant2/lemontree/plant_lemontree10.jpg   	1	5	1	plant_lemontree10.jpg	plant2   	7	lemontree 	22	lemontree10 	229	alive    	1	still	0	natural 	1	n	0	0        	 	0.0	0	137.488351700013	137.588334899978	0.0999831999652088
146674	100	341	stimuli/animals/cat/animal_cat07.jpg             	1	5	1	animal_cat07.jpg     	animals  	0	cat       	6	cat07       	66	alive    	1	moves	1	natural 	1	n	0	0        	 	0.0	0	137.63834439998	137.73834739998	0.10000299999956
146824	100	342	stimuli/animals2/lemur/animal_lemur09.jpg        	1	5	1	animal_lemur09.jpg   	animals2 	1	lemur     	23	lemur09     	238	alive    	1	moves	1	natural 	1	n	0	0        	 	0.0	0	137.78834999993	137.888350799913	0.100000799982809
146974	100	343	stimuli/nonmovNat/rock/nmn_rock10.jpg            	1	5	1	nmn_rock10.jpg       	nonmovNat	5	rock      	30	rock10      	309	not_alive	0	still	0	natural 	1	n	0	0        	 	0.0	0	137.938353999984	138.038345100009	0.0999911000253633
147124	100	344	stimuli/movNat/waves/mn_waves02.jpg              	1	5	1	mn_waves02.jpg       	movNat   	3	waves     	38	waves02     	381	not_alive	0	moves	1	natural 	1	n	0	0        	 	0.0	0	138.088355999906	138.188360799919	0.100004800013267
147274	100	345	stimuli/nonmovArt/lock/nma_lock02.jpg            	1	5	1	nma_lock02.jpg       	nonmovArt	4	lock      	24	lock02      	241	not_alive	0	still	0	artefact	0	n	1	0        	 	0.0	0	138.238392399973	138.338371599908	0.0999791999347508
147424	100	346	stimuli/animals2/lemur/animal_lemur03.jpg        	1	5	1	animal_lemur03.jpg   	animals2 	1	lemur     	23	lemur03     	232	alive    	1	moves	1	natural 	1	n	0	0        	 	0.0	0	138.388364099897	138.48837399995	0.1000099000521
147574	100	347	stimuli/animals/dog/animal_dog06.jpg             	1	5	1	animal_dog06.jpg     	animals  	0	dog       	11	dog06       	115	alive    	1	moves	1	natural 	1	n	0	0        	 	0.0	0	138.538370499969	138.638360099983	0.0999896000139415
147724	100	348	stimuli/nonmovArt/headphones/nma_headphones09.jpg	1	5	1	nma_headphones09.jpg 	nonmovArt	4	headphones	18	headphones09	188	not_alive	0	still	0	artefact	0	n	0	1        	f	0.541962999966927	1	138.688374099904	138.788365799934	0.099991700029932
147874	100	349	stimuli/plant/tree/plant_tree06.jpg              	1	5	1	plant_tree06.jpg     	plant    	6	tree      	35	tree06      	355	alive    	1	still	0	natural 	1	n	1	0        	 	0.0	0	138.838390599936	138.938370999997	0.0999804000603035
148024	100	350	stimuli/movNat/fire/mn_fire08.jpg                	1	5	1	mn_fire08.jpg        	movNat   	3	fire      	15	fire08      	157	not_alive	0	moves	1	natural 	1	n	0	0        	 	0.0	0	138.988424199983	139.088372799917	0.0999485999345779
148174	100	351	stimuli/nonmovArt/lock/nma_lock05.jpg            	1	5	1	nma_lock05.jpg       	nonmovArt	4	lock      	24	lock05      	244	not_alive	0	still	0	artefact	0	n	0	0        	 	0.0	0	139.138384099933	139.238378699985	0.099994600052014
148324	100	352	stimuli/plant/cactus/plant_cactus05.jpg          	1	5	1	plant_cactus05.jpg   	plant    	6	cactus    	4	cactus05    	44	alive    	1	still	0	natural 	1	n	0	1        	f	0.450196000048891	1	139.288391500013	139.388381199911	0.0999896998982876
148474	100	353	stimuli/movNat/fire/mn_fire10.jpg                	1	5	1	mn_fire10.jpg        	movNat   	3	fire      	15	fire10      	159	not_alive	0	moves	1	natural 	1	n	0	0        	 	0.0	0	139.438382499968	139.538397999946	0.100015499978326
148624	100	354	stimuli/plant2/clover/plant_clover08.jpg         	1	5	1	plant_clover08.jpg   	plant2   	7	clover    	9	clover08    	97	alive    	1	still	0	natural 	1	n	0	0        	 	0.0	0	139.588407499949	139.688395599951	0.0999881000025198
148774	100	355	stimuli/movNat/hotspring/mn_hotspring06.jpg      	1	5	1	mn_hotspring06.jpg   	movNat   	3	hotspring 	21	hotspring06 	215	not_alive	0	moves	1	natural 	1	n	0	0        	 	0.0	0	139.738409999991	139.838400100009	0.0999901000177488
148924	100	356	stimuli/plant/tree/plant_tree05.jpg              	1	5	1	plant_tree05.jpg     	plant    	6	tree      	35	tree05      	354	alive    	1	still	0	natural 	1	n	0	0        	 	0.0	0	139.888410899905	139.988403599942	0.0999927000375465
149074	100	357	stimuli/nonmovNat/crystal/nmn_crystal08.jpg      	1	5	1	nmn_crystal08.jpg    	nonmovNat	5	crystal   	10	crystal08   	107	not_alive	0	still	0	natural 	1	n	0	0        	 	0.0	0	140.038412599941	140.138408500003	0.0999959000619128
149224	100	358	stimuli/plant/grass/plant_grass09.jpg            	1	5	1	plant_grass09.jpg    	plant    	6	grass     	17	grass09     	178	alive    	1	still	0	natural 	1	n	0	0        	 	0.0	0	140.188416599994	140.288415699964	0.0999990999698639
149374	100	359	stimuli/animals2/bee/animal_bee09.jpg            	1	5	1	animal_bee09.jpg     	animals2 	1	bee       	0	bee09       	8	alive    	1	moves	1	natural 	1	n	1	0        	 	0.0	0	140.338423199952	140.438406099915	0.0999828999629244
149524	100	360	stimuli/animals2/tiger/animal_tiger02.jpg        	1	5	1	animal_tiger02.jpg   	animals2 	1	tiger     	33	tiger02     	331	alive    	1	moves	1	natural 	1	n	0	0        	 	0.0	0	140.488421499962	140.588413199992	0.099991700029932
149674	100	361	stimuli/movArt/helicopter/ma_helicopter01.jpg    	1	5	1	ma_helicopter01.jpg  	movArt   	2	helicopter	19	helicopter01	190	not_alive	0	moves	1	artefact	0	n	0	0        	 	0.0	0	140.638423600001	140.738414899912	0.0999912999104708
149824	100	362	stimuli/movNat/hotspring/mn_hotspring05.jpg      	1	5	1	mn_hotspring05.jpg   	movNat   	3	hotspring 	21	hotspring05 	214	not_alive	0	moves	1	natural 	1	n	0	1        	f	0.442176199983805	1	140.788427599939	140.888422199991	0.099994600052014
149974	100	363	stimuli/plant2/lemontree/plant_lemontree01.jpg   	1	5	1	plant_lemontree01.jpg	plant2   	7	lemontree 	22	lemontree01 	220	alive    	1	still	0	natural 	1	n	0	0        	 	0.0	0	140.938432199997	141.038424999919	0.0999927999218926
150124	100	364	stimuli/nonmovArt/headphones/nma_headphones04.jpg	1	5	1	nma_headphones04.jpg 	nonmovArt	4	headphones	18	headphones04	183	not_alive	0	still	0	artefact	0	n	0	0        	 	0.0	0	141.088434099918	141.188429899979	0.0999958000611514
150274	100	365	stimuli/nonmovNat/cliff/nmn_cliff04.jpg          	1	5	1	nmn_cliff04.jpg      	nonmovNat	5	cliff     	7	cliff04     	73	not_alive	0	still	0	natural 	1	n	0	0        	 	0.0	0	141.238442100002	141.338432699908	0.0999905999051407
150424	100	366	stimuli/nonmovNat/sand/nmn_sand05.jpg            	1	5	1	nmn_sand05.jpg       	nonmovNat	5	sand      	31	sand05      	314	not_alive	0	still	0	natural 	1	n	0	0        	 	0.0	0	141.388446999947	141.488438199973	0.0999912000261247
150574	100	367	stimuli/plant/vine/plant_vine09.jpg              	1	5	1	plant_vine09.jpg     	plant    	6	vine      	36	vine09      	368	alive    	1	still	0	natural 	1	n	0	0        	 	0.0	0	141.538448499981	141.638440499897	0.099991999915801
150724	100	368	stimuli/nonmovNat/shell/nmn_shell05.jpg          	1	5	1	nmn_shell05.jpg      	nonmovNat	5	shell     	32	shell05     	324	not_alive	0	still	0	natural 	1	n	0	0        	 	0.0	0	141.688451199909	141.788445399958	0.0999942000489682
150874	100	369	stimuli/plant/flower/plant_flower04.jpg          	1	5	1	plant_flower04.jpg   	plant    	6	flower    	16	flower04    	163	alive    	1	still	0	natural 	1	n	0	0        	 	0.0	0	141.838455599966	141.938450299902	0.0999946999363601
151024	100	370	stimuli/animals2/whale/animal_whale08.jpg        	1	5	1	animal_whale08.jpg   	animals2 	1	whale     	39	whale08     	397	alive    	1	moves	1	natural 	1	n	0	0        	 	0.0	0	141.988459299901	142.088451799937	0.0999925000360236
151174	100	371	stimuli/animals2/tiger/animal_tiger09.jpg        	1	5	1	animal_tiger09.jpg   	animals2 	1	tiger     	33	tiger09     	338	alive    	1	moves	1	natural 	1	n	0	0        	 	0.0	0	142.138482399983	142.238459399901	0.0999769999179989
151324	100	372	stimuli/animals2/pigeon/animal_pigeon03.jpg      	1	5	1	animal_pigeon03.jpg  	animals2 	1	pigeon    	28	pigeon03    	282	alive    	1	moves	1	natural 	1	n	0	0        	 	0.0	0	142.28846750001	142.388462399947	0.099994899937883
151474	100	373	stimuli/animals/horse/animal_horse08.jpg         	1	5	1	animal_horse08.jpg   	animals  	0	horse     	20	horse08     	207	alive    	1	moves	1	natural 	1	n	0	0        	 	0.0	0	142.438471399946	142.538465499994	0.0999941000482068
151624	100	374	stimuli/movNat/waterfall/mn_waterfall08.jpg      	1	5	1	mn_waterfall08.jpg   	movNat   	3	waterfall 	37	waterfall08 	377	not_alive	0	moves	1	natural 	1	n	0	0        	 	0.0	0	142.588476800011	142.68846799992	0.0999911999097094
151774	100	375	stimuli/movNat/waterfall/mn_waterfall02.jpg      	1	5	1	mn_waterfall02.jpg   	movNat   	3	waterfall 	37	waterfall02 	371	not_alive	0	moves	1	natural 	1	n	0	0        	 	0.0	0	142.738479899941	142.838474199991	0.0999943000497296
151924	100	376	stimuli/plant/cactus/plant_cactus08.jpg          	1	5	1	plant_cactus08.jpg   	plant    	6	cactus    	4	cactus08    	47	alive    	1	still	0	natural 	1	n	0	0        	 	0.0	0	142.888482799986	142.988476499915	0.0999936999287456
152074	100	377	stimuli/movArt/helicopter/ma_helicopter10.jpg    	1	5	1	ma_helicopter10.jpg  	movArt   	2	helicopter	19	helicopter10	199	not_alive	0	moves	1	artefact	0	n	0	0        	 	0.0	0	143.038488699938	143.138479599962	0.0999909000238404
152224	100	378	stimuli/plant2/palmtree/plant_palmtree02.jpg     	1	5	1	plant_palmtree02.jpg 	plant2   	7	palmtree  	27	palmtree02  	271	alive    	1	still	0	natural 	1	n	0	0        	 	0.0	0	143.188491699984	143.288486999925	0.0999952999409288
152374	100	379	stimuli/nonmovArt/clothespeg/nma_clothespeg10.jpg	1	5	1	nma_clothespeg10.jpg 	nonmovArt	4	clothespeg	8	clothespeg10	89	not_alive	0	still	0	artefact	0	n	0	0        	 	0.0	0	143.338496699929	143.438489599968	0.0999929000390694
152524	100	380	stimuli/animals/dog/animal_dog04.jpg             	1	5	1	animal_dog04.jpg     	animals  	0	dog       	11	dog04       	113	alive    	1	moves	1	natural 	1	n	0	0        	 	0.0	0	143.488498299965	143.588493199903	0.099994899937883
152674	100	381	stimuli/plant/flower/plant_flower09.jpg          	1	5	1	plant_flower09.jpg   	plant    	6	flower    	16	flower09    	168	alive    	1	still	0	natural 	1	n	0	0        	 	0.0	0	143.638501100009	143.738497499959	0.0999963999493048
152824	100	382	stimuli/movArt/helicopter/ma_helicopter09.jpg    	1	5	1	ma_helicopter09.jpg  	movArt   	2	helicopter	19	helicopter09	198	not_alive	0	moves	1	artefact	0	n	0	0        	 	0.0	0	143.788524999982	143.888519699918	0.0999946999363601
152974	100	383	stimuli/movArt/boat/ma_boat04.jpg                	1	5	1	ma_boat04.jpg        	movArt   	2	boat      	2	boat04      	23	not_alive	0	moves	1	artefact	0	n	0	0        	 	0.0	0	143.938511399901	144.038520299946	0.100008900044486
153124	100	384	stimuli/animals2/bee/animal_bee08.jpg            	1	5	1	animal_bee08.jpg     	animals2 	1	bee       	0	bee08       	7	alive    	1	moves	1	natural 	1	n	0	0        	 	0.0	0	144.088515199954	144.188526299898	0.100011099944822
153274	100	385	stimuli/movArt/train/ma_train01.jpg              	1	5	1	ma_train01.jpg       	movArt   	2	train     	34	train01     	340	not_alive	0	moves	1	artefact	0	n	0	0        	 	0.0	0	144.238520599902	144.338514399948	0.0999938000459224
153424	100	386	stimuli/plant/tree/plant_tree03.jpg              	1	5	1	plant_tree03.jpg     	plant    	6	tree      	35	tree03      	352	alive    	1	still	0	natural 	1	n	0	0        	 	0.0	0	144.388522999943	144.488516199985	0.0999932000413537
153574	100	387	stimuli/animals2/whale/animal_whale08.jpg        	1	5	1	animal_whale08.jpg   	animals2 	1	whale     	39	whale08     	397	alive    	1	moves	1	natural 	1	n	0	0        	 	0.0	0	144.538528500008	144.638520399923	0.0999918999150395
153724	100	388	stimuli/movArt/bus/ma_bus10.jpg                  	1	5	1	ma_bus10.jpg         	movArt   	2	bus       	3	bus10       	39	not_alive	0	moves	1	artefact	0	n	0	0        	 	0.0	0	144.68853049993	144.78852479998	0.0999943000497296
153874	100	389	stimuli/plant/flower/plant_flower04.jpg          	1	5	1	plant_flower04.jpg   	plant    	6	flower    	16	flower04    	163	alive    	1	still	0	natural 	1	n	0	0        	 	0.0	0	144.838534499984	144.938527999911	0.0999934999272227
154024	100	390	stimuli/plant2/clover/plant_clover05.jpg         	1	5	1	plant_clover05.jpg   	plant2   	7	clover    	9	clover05    	94	alive    	1	still	0	natural 	1	n	0	0        	 	0.0	0	144.98855619994	145.088532299967	0.0999761000275612
154174	100	391	stimuli/plant/tree/plant_tree06.jpg              	1	5	1	plant_tree06.jpg     	plant    	6	tree      	35	tree06      	355	alive    	1	still	0	natural 	1	n	0	0        	 	0.0	0	145.138542699977	145.238536799909	0.0999940999317914
154324	100	392	stimuli/nonmovArt/bench/nma_bench09.jpg          	1	5	1	nma_bench09.jpg      	nonmovArt	4	bench     	1	bench09     	18	not_alive	0	still	0	artefact	0	n	0	0        	 	0.0	0	145.28854619991	145.388541199965	0.0999950000550598
154474	100	393	stimuli/plant2/fern/plant_fern01.jpg             	1	5	1	plant_fern01.jpg     	plant2   	7	fern      	14	fern01      	140	alive    	1	still	0	natural 	1	n	0	0        	 	0.0	0	145.438551699975	145.538542900002	0.0999912000261247
154624	100	394	stimuli/plant2/lemontree/plant_lemontree04.jpg   	1	5	1	plant_lemontree04.jpg	plant2   	7	lemontree 	22	lemontree04 	223	alive    	1	still	0	natural 	1	n	0	0        	 	0.0	0	145.588554799906	145.68854839995	0.0999936000443995
154774	100	395	stimuli/nonmovArt/mug/nma_mug07.jpg              	1	5	1	nma_mug07.jpg        	nonmovArt	4	mug       	26	mug07       	266	not_alive	0	still	0	artefact	0	n	0	0        	 	0.0	0	145.73857679998	145.83855049999	0.0999737000092864
154924	100	396	stimuli/movNat/waterfall/mn_waterfall01.jpg      	1	5	1	mn_waterfall01.jpg   	movNat   	3	waterfall 	37	waterfall01 	370	not_alive	0	moves	1	natural 	1	n	0	0        	 	0.0	0	145.888563999906	145.98855619994	0.0999922000337392
155074	100	397	stimuli/nonmovNat/crystal/nmn_crystal09.jpg      	1	5	1	nmn_crystal09.jpg    	nonmovNat	5	crystal   	10	crystal09   	108	not_alive	0	still	0	natural 	1	n	0	0        	 	0.0	0	146.038568499964	146.138562600012	0.0999941000482068
155224	100	398	stimuli/animals/cat/animal_cat08.jpg             	1	5	1	animal_cat08.jpg     	animals  	0	cat       	6	cat08       	67	alive    	1	moves	1	natural 	1	n	0	0        	 	0.0	0	146.1885722999	146.288563799928	0.0999915000284091
155374	100	399	stimuli/animals/horse/animal_horse02.jpg         	1	5	1	animal_horse02.jpg   	animals  	0	horse     	20	horse02     	201	alive    	1	moves	1	natural 	1	n	0	0        	 	0.0	0	146.33859249996	146.438568199985	0.0999757000245154
159491	100	400	stimuli/nonmovNat/crystal/nmn_crystal02.jpg      	1	6	1	nmn_crystal02.jpg    	nonmovNat	5	crystal   	10	crystal02   	101	not_alive	0	still	0	natural 	1	n	0	0        	 	0.0	0	150.455377899925	150.555351799936	0.0999739000108093
159641	100	401	stimuli/movNat/fire/mn_fire10.jpg                	1	6	1	mn_fire10.jpg        	movNat   	3	fire      	15	fire10      	159	not_alive	0	moves	1	natural 	1	n	0	0        	 	0.0	0	150.605362299946	150.705355299986	0.0999930000398308
159791	100	402	stimuli/plant2/lemontree/plant_lemontree05.jpg   	1	6	1	plant_lemontree05.jpg	plant2   	7	lemontree 	22	lemontree05 	224	alive    	1	still	0	natural 	1	n	0	0        	 	0.0	0	150.755364299985	150.855357299908	0.0999929999234155
159941	100	403	stimuli/animals2/whale/animal_whale06.jpg        	1	6	1	animal_whale06.jpg   	animals2 	1	whale     	39	whale06     	395	alive    	1	moves	1	natural 	1	n	0	0        	 	0.0	0	150.905369699933	151.00537369994	0.100004000007175
160091	100	404	stimuli/animals/cat/animal_cat04.jpg             	1	6	1	animal_cat04.jpg     	animals  	0	cat       	6	cat04       	63	alive    	1	moves	1	natural 	1	n	0	0        	 	0.0	0	151.055374599993	151.155366799911	0.0999921999173239
160241	100	405	stimuli/plant/grass/plant_grass05.jpg            	1	6	1	plant_grass05.jpg    	plant    	6	grass     	17	grass05     	174	alive    	1	still	0	natural 	1	n	0	0        	 	0.0	0	151.205376999918	151.305371799972	0.0999948000535369
160391	100	406	stimuli/animals/eagle/animal_eagle03.jpg         	1	6	1	animal_eagle03.jpg   	animals  	0	eagle     	13	eagle03     	132	alive    	1	moves	1	natural 	1	n	0	0        	 	0.0	0	151.355380199966	151.455376999918	0.0999967999523506
160541	100	407	stimuli/plant2/palmtree/plant_palmtree02.jpg     	1	6	1	plant_palmtree02.jpg 	plant2   	7	palmtree  	27	palmtree02  	271	alive    	1	still	0	natural 	1	n	0	0        	 	0.0	0	151.50537899998	151.605372399907	0.0999933999264613
160691	100	408	stimuli/nonmovNat/rock/nmn_rock02.jpg            	1	6	1	nmn_rock02.jpg       	nonmovNat	5	rock      	30	rock02      	301	not_alive	0	still	0	natural 	1	n	0	0        	 	0.0	0	151.655381099903	151.75537629996	0.0999952000565827
160841	100	409	stimuli/movArt/boat/ma_boat03.jpg                	1	6	1	ma_boat03.jpg        	movArt   	2	boat      	2	boat03      	22	not_alive	0	moves	1	artefact	0	n	0	0        	 	0.0	0	151.805388299981	151.905380200013	0.0999919000314549
160991	100	410	stimuli/nonmovNat/cliff/nmn_cliff08.jpg          	1	6	1	nmn_cliff08.jpg      	nonmovNat	5	cliff     	7	cliff08     	77	not_alive	0	still	0	natural 	1	n	0	0        	 	0.0	0	151.955390899908	152.055385699961	0.0999948000535369
161141	100	411	stimuli/nonmovArt/clothespeg/nma_clothespeg07.jpg	1	6	1	nma_clothespeg07.jpg 	nonmovArt	4	clothespeg	8	clothespeg07	86	not_alive	0	still	0	artefact	0	n	0	0        	 	0.0	0	152.105395399965	152.20538900001	0.0999936000443995
161291	100	412	stimuli/movNat/hotspring/mn_hotspring07.jpg      	1	6	1	mn_hotspring07.jpg   	movNat   	3	hotspring 	21	hotspring07 	216	not_alive	0	moves	1	natural 	1	n	0	0        	 	0.0	0	152.255399199901	152.355390899931	0.099991700029932
161441	100	413	stimuli/animals2/pigeon/animal_pigeon07.jpg      	1	6	1	animal_pigeon07.jpg  	animals2 	1	pigeon    	28	pigeon07    	286	alive    	1	moves	1	natural 	1	n	0	0        	 	0.0	0	152.405400999938	152.505396299995	0.0999953000573441
