onset	duration	eventnumber	stimulus_file	blockno	trialno	is_faststream	stim	stim_category	category_number	exemplar	exemplar_number	image_name	image_number	aliveness	aliveness_bin	movement	movement_bin	naturalness	naturalness_bin	response_hand_alive	istarget	response	keypressed	rt	correct	time_stimon	time_stimoff	stimdur
57733	100	0	stimuli/animals/horse/animal_horse06.jpg         	1	1	1	animal_horse06.jpg   	animals  	0	horse     	20	horse06     	205	alive    	1	moves	1	natural 	1	n	0	0        	 	0.0	0	93.0338451999996	93.1338317999907	0.099986599991098
57883	100	1	stimuli/nonmovNat/shell/nmn_shell09.jpg          	1	1	1	nmn_shell09.jpg      	nonmovNat	5	shell     	32	shell09     	328	not_alive	0	still	0	natural 	1	n	0	0        	 	0.0	0	93.1838546000072	93.2838398999884	0.0999852999811992
58033	100	2	stimuli/movArt/helicopter/ma_helicopter06.jpg    	1	1	1	ma_helicopter06.jpg  	movArt   	2	helicopter	19	helicopter06	195	not_alive	0	moves	1	artefact	0	n	0	1        	f	0.0	0	93.3338447999849	93.4338395000086	0.0999947000236716
58183	100	3	stimuli/movNat/waterfall/mn_waterfall02.jpg      	1	1	1	mn_waterfall02.jpg   	movNat   	3	waterfall 	37	waterfall02 	371	not_alive	0	moves	1	natural 	1	n	0	0        	 	0.0	0	93.4838546999963	93.5838613999949	0.10000669999863
58333	100	4	stimuli/nonmovArt/bench/nma_bench05.jpg          	1	1	1	nma_bench05.jpg      	nonmovArt	4	bench     	1	bench05     	14	not_alive	0	still	0	artefact	0	n	0	0        	 	0.0	0	93.633854499989	93.7338448000082	0.0999903000192717
58483	100	5	stimuli/animals2/whale/animal_whale10.jpg        	1	1	1	animal_whale10.jpg   	animals2 	1	whale     	39	whale10     	399	alive    	1	moves	1	natural 	1	n	0	0        	 	0.0	0	93.7838609000028	93.8838533000089	0.0999924000061583
58633	100	6	stimuli/movArt/car/ma_car09.jpg                  	1	1	1	ma_car09.jpg         	movArt   	2	car       	5	car09       	58	not_alive	0	moves	1	artefact	0	n	0	0        	 	0.0	0	93.9338611999992	94.0338533000031	0.0999921000038739
58783	100	7	stimuli/animals/eagle/animal_eagle10.jpg         	1	1	1	animal_eagle10.jpg   	animals  	0	eagle     	13	eagle10     	139	alive    	1	moves	1	natural 	1	n	0	0        	 	0.0	0	94.0841256999993	94.1838620000053	0.0997363000060432
58933	100	8	stimuli/animals2/pigeon/animal_pigeon05.jpg      	1	1	1	animal_pigeon05.jpg  	animals2 	1	pigeon    	28	pigeon05    	284	alive    	1	moves	1	natural 	1	n	0	0        	 	0.0	0	94.2338623999967	94.3338852000015	0.100022800004808
59083	100	9	stimuli/nonmovArt/headphones/nma_headphones03.jpg	1	1	1	nma_headphones03.jpg 	nonmovArt	4	headphones	18	headphones03	182	not_alive	0	still	0	artefact	0	n	0	0        	 	0.0	0	94.3838703999936	94.4838651999889	0.0999947999953292
59233	100	10	stimuli/movArt/bus/ma_bus04.jpg                  	1	1	1	ma_bus04.jpg         	movArt   	2	bus       	3	bus04       	33	not_alive	0	moves	1	artefact	0	n	0	0        	 	0.0	0	94.533870299987	94.6338626999932	0.0999924000061583
59383	100	11	stimuli/movArt/helicopter/ma_helicopter03.jpg    	1	1	1	ma_helicopter03.jpg  	movArt   	2	helicopter	19	helicopter03	192	not_alive	0	moves	1	artefact	0	n	0	0        	 	0.0	0	94.6838750999886	94.7838694000093	0.0999943000206258
59533	100	12	stimuli/movArt/boat/ma_boat06.jpg                	1	1	1	ma_boat06.jpg        	movArt   	2	boat      	2	boat06      	25	not_alive	0	moves	1	artefact	0	n	0	0        	 	0.0	0	94.8338779000042	94.9338870999927	0.100009199988563
59683	100	13	stimuli/nonmovArt/bench/nma_bench09.jpg          	1	1	1	nma_bench09.jpg      	nonmovArt	4	bench     	1	bench09     	18	not_alive	0	still	0	artefact	0	n	0	0        	 	0.0	0	94.9838839999866	95.0838913999905	0.10000740000396
59833	100	14	stimuli/nonmovArt/clothespeg/nma_clothespeg05.jpg	1	1	1	nma_clothespeg05.jpg 	nonmovArt	4	clothespeg	8	clothespeg05	84	not_alive	0	still	0	artefact	0	n	0	0        	 	0.0	0	95.1338851999899	95.2338802999875	0.0999950999976136
59983	100	15	stimuli/nonmovNat/crystal/nmn_crystal07.jpg      	1	1	1	nmn_crystal07.jpg    	nonmovNat	5	crystal   	10	crystal07   	106	not_alive	0	still	0	natural 	1	n	0	0        	 	0.0	0	95.2838917000044	95.3838839000091	0.0999922000046354
60133	100	16	stimuli/nonmovNat/crystal/nmn_crystal04.jpg      	1	1	1	nmn_crystal04.jpg    	nonmovNat	5	crystal   	10	crystal04   	103	not_alive	0	still	0	natural 	1	n	0	0        	 	0.0	0	95.4339019999898	95.5338862999924	0.0999843000026885
60283	100	17	stimuli/nonmovNat/rock/nmn_rock05.jpg            	1	1	1	nmn_rock05.jpg       	nonmovNat	5	rock      	30	rock05      	304	not_alive	0	still	0	natural 	1	n	0	0        	 	0.0	0	95.5838991999917	95.6839089999848	0.100009799993131
60433	100	18	stimuli/plant/grass/plant_grass01.jpg            	1	1	1	plant_grass01.jpg    	plant    	6	grass     	17	grass01     	170	alive    	1	still	0	natural 	1	n	1	0        	 	0.0	0	95.7338997999905	95.8339053999807	0.100005599990254
60583	100	19	stimuli/nonmovNat/sand/nmn_sand02.jpg            	1	1	1	nmn_sand02.jpg       	nonmovNat	5	sand      	31	sand02      	311	not_alive	0	still	0	natural 	1	n	0	0        	 	0.0	0	95.8839071999828	95.9839008999988	0.0999937000160571
60733	100	20	stimuli/movNat/hotspring/mn_hotspring04.jpg      	1	1	1	mn_hotspring04.jpg   	movNat   	3	hotspring 	21	hotspring04 	213	not_alive	0	moves	1	natural 	1	n	0	0        	 	0.0	0	96.0339090999914	96.1339063000051	0.099997200013604
60883	100	21	stimuli/movNat/fire/mn_fire02.jpg                	1	1	1	mn_fire02.jpg        	movNat   	3	fire      	15	fire02      	151	not_alive	0	moves	1	natural 	1	n	1	0        	 	0.0	0	96.1839419000026	96.2839074000076	0.0999655000050552
61033	100	22	stimuli/plant2/clover/plant_clover10.jpg         	1	1	1	plant_clover10.jpg   	plant2   	7	clover    	9	clover10    	99	alive    	1	still	0	natural 	1	n	0	0        	 	0.0	0	96.3339153999987	96.4339175999921	0.100002199993469
61183	100	23	stimuli/nonmovArt/mug/nma_mug06.jpg              	1	1	1	nma_mug06.jpg        	nonmovArt	4	mug       	26	mug06       	265	not_alive	0	still	0	artefact	0	n	0	0        	 	0.0	0	96.483920300001	96.5839169999817	0.0999966999806929
61333	100	24	stimuli/plant2/clover/plant_clover10.jpg         	1	1	1	plant_clover10.jpg   	plant2   	7	clover    	9	clover10    	99	alive    	1	still	0	natural 	1	n	0	0        	 	0.0	0	96.6339234999905	96.733917799982	0.099994299991522
61483	100	25	stimuli/movArt/train/ma_train09.jpg              	1	1	1	ma_train09.jpg       	movArt   	2	train     	34	train09     	348	not_alive	0	moves	1	artefact	0	n	0	0        	 	0.0	0	96.7839450000029	96.8839234999905	0.0999784999876283
61633	100	26	stimuli/nonmovArt/lock/nma_lock03.jpg            	1	1	1	nma_lock03.jpg       	nonmovArt	4	lock      	24	lock03      	242	not_alive	0	still	0	artefact	0	n	0	0        	 	0.0	0	96.9339542000089	97.0339246999938	0.09997049998492
61783	100	27	stimuli/plant/flower/plant_flower04.jpg          	1	1	1	plant_flower04.jpg   	plant    	6	flower    	16	flower04    	163	alive    	1	still	0	natural 	1	n	0	0        	 	0.0	0	97.0839381999976	97.1839353999821	0.0999971999845002
61933	100	28	stimuli/nonmovArt/lock/nma_lock07.jpg            	1	1	1	nma_lock07.jpg       	nonmovArt	4	lock      	24	lock07      	246	not_alive	0	still	0	artefact	0	n	0	0        	 	0.0	0	97.2339394000009	97.3339327999856	0.0999933999846689
62083	100	29	stimuli/plant/cactus/plant_cactus03.jpg          	1	1	1	plant_cactus03.jpg   	plant    	6	cactus    	4	cactus03    	42	alive    	1	still	0	natural 	1	n	0	0        	 	0.0	0	97.3839454999834	97.4839452999877	0.0999998000042979
62233	100	30	stimuli/plant/vine/plant_vine04.jpg              	1	1	1	plant_vine04.jpg     	plant    	6	vine      	36	vine04      	363	alive    	1	still	0	natural 	1	n	0	0        	 	0.0	0	97.5339647000074	97.6339451999811	0.0999804999737535
62383	100	31	stimuli/nonmovArt/bench/nma_bench08.jpg          	1	1	1	nma_bench08.jpg      	nonmovArt	4	bench     	1	bench08     	17	not_alive	0	still	0	artefact	0	n	0	0        	 	0.0	0	97.6839722000004	97.7839573000092	0.0999851000087801
62533	100	32	stimuli/animals2/lemur/animal_lemur08.jpg        	1	1	1	animal_lemur08.jpg   	animals2 	1	lemur     	23	lemur08     	237	alive    	1	moves	1	natural 	1	n	0	0        	 	0.0	0	97.8339609999966	97.9339784999902	0.100017499993555
62683	100	33	stimuli/animals2/tiger/animal_tiger02.jpg        	1	1	1	animal_tiger02.jpg   	animals2 	1	tiger     	33	tiger02     	331	alive    	1	moves	1	natural 	1	n	0	0        	 	0.0	0	97.9839659999998	98.0839590999822	0.0999930999823846
62833	100	34	stimuli/animals/cat/animal_cat04.jpg             	1	1	1	animal_cat04.jpg     	animals  	0	cat       	6	cat04       	63	alive    	1	moves	1	natural 	1	n	1	0        	 	0.0	0	98.1339671000024	98.2339553000056	0.0999882000032812
62983	100	35	stimuli/plant/tree/plant_tree06.jpg              	1	1	1	plant_tree06.jpg     	plant    	6	tree      	35	tree06      	355	alive    	1	still	0	natural 	1	n	0	1        	f	0.25018169998657	1	98.2839693999849	98.3839603000088	0.0999909000238404
63133	100	36	stimuli/movArt/bus/ma_bus06.jpg                  	1	1	1	ma_bus06.jpg         	movArt   	2	bus       	3	bus06       	35	not_alive	0	moves	1	artefact	0	n	0	0        	 	0.0	0	98.4339696999814	98.5339875000063	0.100017800024943
63283	100	37	stimuli/nonmovNat/cliff/nmn_cliff08.jpg          	1	1	1	nmn_cliff08.jpg      	nonmovNat	5	cliff     	7	cliff08     	77	not_alive	0	still	0	natural 	1	n	0	0        	 	0.0	0	98.5839752999891	98.683971099992	0.0999958000029437
63433	100	38	stimuli/animals2/whale/animal_whale06.jpg        	1	1	1	animal_whale06.jpg   	animals2 	1	whale     	39	whale06     	395	alive    	1	moves	1	natural 	1	n	0	0        	 	0.0	0	98.7339764999924	98.8339689999994	0.0999925000069197
63583	100	39	stimuli/animals2/lemur/animal_lemur04.jpg        	1	1	1	animal_lemur04.jpg   	animals2 	1	lemur     	23	lemur04     	233	alive    	1	moves	1	natural 	1	n	0	0        	 	0.0	0	98.8839836999832	98.9839752999833	0.0999916000000667
63733	100	40	stimuli/nonmovNat/shell/nmn_shell08.jpg          	1	1	1	nmn_shell08.jpg      	nonmovNat	5	shell     	32	shell08     	327	not_alive	0	still	0	natural 	1	n	0	0        	 	0.0	0	99.0339845999842	99.1339773999935	0.0999928000092041
63883	100	41	stimuli/animals/eagle/animal_eagle10.jpg         	1	1	1	animal_eagle10.jpg   	animals  	0	eagle     	13	eagle10     	139	alive    	1	moves	1	natural 	1	n	0	0        	 	0.0	0	99.1839919000049	99.2839836000057	0.0999917000008281
64033	100	42	stimuli/animals2/lemur/animal_lemur09.jpg        	1	1	1	animal_lemur09.jpg   	animals2 	1	lemur     	23	lemur09     	238	alive    	1	moves	1	natural 	1	n	0	0        	 	0.0	0	99.3339924000029	99.4339902999927	0.0999978999898303
64183	100	43	stimuli/plant2/moss/plant_moss10.jpg             	1	1	1	plant_moss10.jpg     	plant2   	7	moss      	25	moss10      	259	alive    	1	still	0	natural 	1	n	0	0        	 	0.0	0	99.4839992999914	99.5839911999938	0.099991900002351
64333	100	44	stimuli/movArt/car/ma_car04.jpg                  	1	1	1	ma_car04.jpg         	movArt   	2	car       	5	car04       	53	not_alive	0	moves	1	artefact	0	n	0	0        	 	0.0	0	99.6339989999833	99.7339936000062	0.0999946000229102
64483	100	45	stimuli/nonmovArt/lock/nma_lock03.jpg            	1	1	1	nma_lock03.jpg       	nonmovArt	4	lock      	24	lock03      	242	not_alive	0	still	0	artefact	0	n	0	0        	 	0.0	0	99.7840104000061	99.884034799994	0.100024399987888
64633	100	46	stimuli/movArt/bus/ma_bus10.jpg                  	1	1	1	ma_bus10.jpg         	movArt   	2	bus       	3	bus10       	39	not_alive	0	moves	1	artefact	0	n	0	0        	 	0.0	0	99.934007600008	100.03400059999	0.0999929999816231
64783	100	47	stimuli/animals2/tiger/animal_tiger10.jpg        	1	1	1	animal_tiger10.jpg   	animals2 	1	tiger     	33	tiger10     	339	alive    	1	moves	1	natural 	1	n	0	0        	 	0.0	0	100.084014699998	100.1840065	0.0999918000015896
64933	100	48	stimuli/movNat/hotspring/mn_hotspring06.jpg      	1	1	1	mn_hotspring06.jpg   	movNat   	3	hotspring 	21	hotspring06 	215	not_alive	0	moves	1	natural 	1	n	0	0        	 	0.0	0	100.2340157	100.33400979999	0.0999940999899991
65083	100	49	stimuli/nonmovArt/clothespeg/nma_clothespeg10.jpg	1	1	1	nma_clothespeg10.jpg 	nonmovArt	4	clothespeg	8	clothespeg10	89	not_alive	0	still	0	artefact	0	n	0	0        	 	0.0	0	100.384020700003	100.484013899986	0.099993199983146
65233	100	50	stimuli/animals/eagle/animal_eagle04.jpg         	1	1	1	animal_eagle04.jpg   	animals  	0	eagle     	13	eagle04     	133	alive    	1	moves	1	natural 	1	n	0	0        	 	0.0	0	100.534021200001	100.634042899997	0.100021699996432
65383	100	51	stimuli/nonmovNat/rock/nmn_rock06.jpg            	1	1	1	nmn_rock06.jpg       	nonmovNat	5	rock      	30	rock06      	305	not_alive	0	still	0	natural 	1	n	0	0        	 	0.0	0	100.684029800002	100.784023099986	0.0999932999839075
65533	100	52	stimuli/nonmovNat/cliff/nmn_cliff02.jpg          	1	1	1	nmn_cliff02.jpg      	nonmovNat	5	cliff     	7	cliff02     	71	not_alive	0	still	0	natural 	1	n	0	0        	 	0.0	0	100.834030900005	100.934024799993	0.0999938999884762
65683	100	53	stimuli/plant/grass/plant_grass09.jpg            	1	1	1	plant_grass09.jpg    	plant    	6	grass     	17	grass09     	178	alive    	1	still	0	natural 	1	n	0	0        	 	0.0	0	100.984036299982	101.08403149998	0.099995199998375
65833	100	54	stimuli/plant/tree/plant_tree10.jpg              	1	1	1	plant_tree10.jpg     	plant    	6	tree      	35	tree10      	359	alive    	1	still	0	natural 	1	n	0	0        	 	0.0	0	101.134039099998	101.234060899995	0.100021799997194
65983	100	55	stimuli/animals/dog/animal_dog04.jpg             	1	1	1	animal_dog04.jpg     	animals  	0	dog       	11	dog04       	113	alive    	1	moves	1	natural 	1	n	1	0        	 	0.0	0	101.284044700005	101.384050399996	0.100005699991016
66133	100	56	stimuli/movNat/waves/mn_waves07.jpg              	1	1	1	mn_waves07.jpg       	movNat   	3	waves     	38	waves07     	386	not_alive	0	moves	1	natural 	1	n	0	0        	 	0.0	0	101.434046199982	101.534039499995	0.0999933000130113
66283	100	57	stimuli/movNat/river/mn_river08.jpg              	1	1	1	mn_river08.jpg       	movNat   	3	river     	29	river08     	297	not_alive	0	moves	1	natural 	1	n	0	1        	f	0.392013899981976	1	101.584052299993	101.684044499998	0.0999922000046354
66433	100	58	stimuli/animals/dolphin/animal_dolphin05.jpg     	1	1	1	animal_dolphin05.jpg 	animals  	0	dolphin   	12	dolphin05   	124	alive    	1	moves	1	natural 	1	n	0	0        	 	0.0	0	101.734096	101.834048499994	0.0999524999933783
66583	100	59	stimuli/nonmovNat/sand/nmn_sand10.jpg            	1	1	1	nmn_sand10.jpg       	nonmovNat	5	sand      	31	sand10      	319	not_alive	0	still	0	natural 	1	n	0	0        	 	0.0	0	101.884058700001	101.984069600003	0.100010900001507
66733	100	60	stimuli/plant/vine/plant_vine01.jpg              	1	1	1	plant_vine01.jpg     	plant    	6	vine      	36	vine01      	360	alive    	1	still	0	natural 	1	n	0	0        	 	0.0	0	102.034062399995	102.134053199989	0.0999907999939751
66883	100	61	stimuli/plant2/lemontree/plant_lemontree06.jpg   	1	1	1	plant_lemontree06.jpg	plant2   	7	lemontree 	22	lemontree06 	225	alive    	1	still	0	natural 	1	n	0	0        	 	0.0	0	102.184066799993	102.284060999984	0.0999941999907605
67033	100	62	stimuli/animals2/bee/animal_bee03.jpg            	1	1	1	animal_bee03.jpg     	animals2 	1	bee       	0	bee03       	2	alive    	1	moves	1	natural 	1	n	0	0        	 	0.0	0	102.334087700001	102.434061499982	0.099973799980944
67183	100	63	stimuli/animals/cat/animal_cat08.jpg             	1	1	1	animal_cat08.jpg     	animals  	0	cat       	6	cat08       	67	alive    	1	moves	1	natural 	1	n	0	0        	 	0.0	0	102.484102099988	102.584066999989	0.0999649000004865
67333	100	64	stimuli/nonmovNat/sand/nmn_sand09.jpg            	1	1	1	nmn_sand09.jpg       	nonmovNat	5	sand      	31	sand09      	318	not_alive	0	still	0	natural 	1	n	0	0        	 	0.0	0	102.634075899987	102.734074999986	0.0999990999989677
67483	100	65	stimuli/animals/dolphin/animal_dolphin07.jpg     	1	1	1	animal_dolphin07.jpg 	animals  	0	dolphin   	12	dolphin07   	126	alive    	1	moves	1	natural 	1	n	0	0        	 	0.0	0	102.7840822	102.884075000009	0.0999928000092041
67633	100	66	stimuli/animals/dolphin/animal_dolphin03.jpg     	1	1	1	animal_dolphin03.jpg 	animals  	0	dolphin   	12	dolphin03   	122	alive    	1	moves	1	natural 	1	n	0	0        	 	0.0	0	102.934083600005	103.034077999997	0.0999943999922834
67783	100	67	stimuli/movArt/train/ma_train09.jpg              	1	1	1	ma_train09.jpg       	movArt   	2	train     	34	train09     	348	not_alive	0	moves	1	artefact	0	n	0	0        	 	0.0	0	103.084098399995	103.184082499996	0.0999841000011656
67933	100	68	stimuli/movArt/helicopter/ma_helicopter02.jpg    	1	1	1	ma_helicopter02.jpg  	movArt   	2	helicopter	19	helicopter02	191	not_alive	0	moves	1	artefact	0	n	0	0        	 	0.0	0	103.234104300005	103.334086999996	0.0999826999905054
68083	100	69	stimuli/animals/dog/animal_dog09.jpg             	1	1	1	animal_dog09.jpg     	animals  	0	dog       	11	dog09       	118	alive    	1	moves	1	natural 	1	n	0	0        	 	0.0	0	103.384095999994	103.484090999991	0.0999949999968521
68233	100	70	stimuli/animals/cat/animal_cat06.jpg             	1	1	1	animal_cat06.jpg     	animals  	0	cat       	6	cat06       	65	alive    	1	moves	1	natural 	1	n	0	0        	 	0.0	0	103.534098100004	103.634093100001	0.0999949999968521
68383	100	71	stimuli/nonmovNat/rock/nmn_rock10.jpg            	1	1	1	nmn_rock10.jpg       	nonmovNat	5	rock      	30	rock10      	309	not_alive	0	still	0	natural 	1	n	0	0        	 	0.0	0	103.684105399996	103.7840975	0.0999921000038739
68533	100	72	stimuli/plant2/fern/plant_fern08.jpg             	1	1	1	plant_fern08.jpg     	plant2   	7	fern      	14	fern08      	147	alive    	1	still	0	natural 	1	n	0	0        	 	0.0	0	103.834119300009	103.93410079999	0.099981499981368
68683	100	73	stimuli/movArt/boat/ma_boat03.jpg                	1	1	1	ma_boat03.jpg        	movArt   	2	boat      	2	boat03      	22	not_alive	0	moves	1	artefact	0	n	0	0        	 	0.0	0	103.984116399981	104.084107000002	0.099990600021556
68833	100	74	stimuli/movArt/car/ma_car01.jpg                  	1	1	1	ma_car01.jpg         	movArt   	2	car       	5	car01       	50	not_alive	0	moves	1	artefact	0	n	0	0        	 	0.0	0	104.134113299981	104.234108000004	0.0999947000236716
68983	100	75	stimuli/plant2/moss/plant_moss08.jpg             	1	1	1	plant_moss08.jpg     	plant2   	7	moss      	25	moss08      	257	alive    	1	still	0	natural 	1	n	0	0        	 	0.0	0	104.284121100005	104.384114799992	0.0999936999869533
69133	100	76	stimuli/plant/tree/plant_tree01.jpg              	1	1	1	plant_tree01.jpg     	plant    	6	tree      	35	tree01      	350	alive    	1	still	0	natural 	1	n	0	0        	 	0.0	0	104.434121400001	104.534115799994	0.0999943999922834
69283	100	77	stimuli/movNat/waves/mn_waves03.jpg              	1	1	1	mn_waves03.jpg       	movNat   	3	waves     	38	waves03     	382	not_alive	0	moves	1	natural 	1	n	0	0        	 	0.0	0	104.584126300004	104.68411989999	0.0999935999861918
69433	100	78	stimuli/nonmovNat/cliff/nmn_cliff10.jpg          	1	1	1	nmn_cliff10.jpg      	nonmovNat	5	cliff     	7	cliff10     	79	not_alive	0	still	0	natural 	1	n	0	0        	 	0.0	0	104.73412909999	104.834124899993	0.0999958000029437
69583	100	79	stimuli/movNat/waterfall/mn_waterfall01.jpg      	1	1	1	mn_waterfall01.jpg   	movNat   	3	waterfall 	37	waterfall01 	370	not_alive	0	moves	1	natural 	1	n	0	0        	 	0.0	0	104.884139200003	104.984128199983	0.099988999980269
84100	100	80	stimuli/plant2/clover/plant_clover05.jpg         	1	2	1	plant_clover05.jpg   	plant2   	7	clover    	9	clover05    	94	alive    	1	still	0	natural 	1	n	0	0        	 	0.0	0	119.401180899993	119.501169900002	0.0999890000093728
84250	100	81	stimuli/animals2/bee/animal_bee04.jpg            	1	2	1	animal_bee04.jpg     	animals2 	1	bee       	0	bee04       	3	alive    	1	moves	1	natural 	1	n	0	0        	 	0.0	0	119.551181399991	119.651173399994	0.0999920000031125
84400	100	82	stimuli/plant/flower/plant_flower05.jpg          	1	2	1	plant_flower05.jpg   	plant    	6	flower    	16	flower05    	164	alive    	1	still	0	natural 	1	n	0	0        	 	0.0	0	119.7011871	119.801178499998	0.0999913999985438
84550	100	83	stimuli/animals2/pigeon/animal_pigeon08.jpg      	1	2	1	animal_pigeon08.jpg  	animals2 	1	pigeon    	28	pigeon08    	287	alive    	1	moves	1	natural 	1	n	0	0        	 	0.0	0	119.851188300003	119.951180500007	0.0999922000046354
84700	100	84	stimuli/movNat/river/mn_river02.jpg              	1	2	1	mn_river02.jpg       	movNat   	3	river     	29	river02     	291	not_alive	0	moves	1	natural 	1	n	0	0        	 	0.0	0	120.001193000004	120.101184300001	0.0999912999977823
84850	100	85	stimuli/animals2/pigeon/animal_pigeon06.jpg      	1	2	1	animal_pigeon06.jpg  	animals2 	1	pigeon    	28	pigeon06    	285	alive    	1	moves	1	natural 	1	n	0	0        	 	0.0	0	120.151196299994	120.25119119999	0.0999948999960907
85000	100	86	stimuli/nonmovArt/headphones/nma_headphones07.jpg	1	2	1	nma_headphones07.jpg 	nonmovArt	4	headphones	18	headphones07	186	not_alive	0	still	0	artefact	0	n	0	0        	 	0.0	0	120.301199899986	120.401201400004	0.100001500017243
85150	100	87	stimuli/plant2/moss/plant_moss01.jpg             	1	2	1	plant_moss01.jpg     	plant2   	7	moss      	25	moss01      	250	alive    	1	still	0	natural 	1	n	0	0        	 	0.0	0	120.451207500009	120.551197499997	0.0999899999878835
85300	100	88	stimuli/movNat/river/mn_river02.jpg              	1	2	1	mn_river02.jpg       	movNat   	3	river     	29	river02     	291	not_alive	0	moves	1	natural 	1	n	0	0        	 	0.0	0	120.601209199987	120.701201499993	0.0999923000053968
85450	100	89	stimuli/plant/cactus/plant_cactus01.jpg          	1	2	1	plant_cactus01.jpg   	plant    	6	cactus    	4	cactus01    	40	alive    	1	still	0	natural 	1	n	0	0        	 	0.0	0	120.751211299998	120.851204499981	0.099993199983146
85600	100	90	stimuli/plant2/palmtree/plant_palmtree02.jpg     	1	2	1	plant_palmtree02.jpg 	plant2   	7	palmtree  	27	palmtree02  	271	alive    	1	still	0	natural 	1	n	0	0        	 	0.0	0	120.901216700004	121.001208100002	0.0999913999985438
85750	100	91	stimuli/plant/flower/plant_flower03.jpg          	1	2	1	plant_flower03.jpg   	plant    	6	flower    	16	flower03    	162	alive    	1	still	0	natural 	1	n	1	0        	 	0.0	0	121.051218100009	121.151241199987	0.100023099977989
85900	100	92	stimuli/movNat/waterfall/mn_waterfall10.jpg      	1	2	1	mn_waterfall10.jpg   	movNat   	3	waterfall 	37	waterfall10 	379	not_alive	0	moves	1	natural 	1	n	0	1        	f	0.242004499974428	1	121.201222800009	121.301216499996	0.0999936999869533
86050	100	93	stimuli/nonmovArt/mug/nma_mug05.jpg              	1	2	1	nma_mug05.jpg        	nonmovArt	4	mug       	26	mug05       	264	not_alive	0	still	0	artefact	0	n	0	0        	 	0.0	0	121.3512261	121.451219899987	0.0999937999877147
86200	100	94	stimuli/plant/grass/plant_grass01.jpg            	1	2	1	plant_grass01.jpg    	plant    	6	grass     	17	grass01     	170	alive    	1	still	0	natural 	1	n	0	0        	 	0.0	0	121.501231000002	121.601228199987	0.0999971999845002
86350	100	95	stimuli/plant/cactus/plant_cactus03.jpg          	1	2	1	plant_cactus03.jpg   	plant    	6	cactus    	4	cactus03    	42	alive    	1	still	0	natural 	1	n	0	0        	 	0.0	0	121.651232700009	121.7512498	0.100017099990509
86500	100	96	stimuli/movArt/train/ma_train02.jpg              	1	2	1	ma_train02.jpg       	movArt   	2	train     	34	train02     	341	not_alive	0	moves	1	artefact	0	n	0	0        	 	0.0	0	121.801237399981	121.901252999989	0.100015600008192
86650	100	97	stimuli/nonmovNat/crystal/nmn_crystal04.jpg      	1	2	1	nmn_crystal04.jpg    	nonmovNat	5	crystal   	10	crystal04   	103	not_alive	0	still	0	natural 	1	n	0	0        	 	0.0	0	121.951243599993	122.051235399995	0.0999918000015896
86800	100	98	stimuli/plant2/lemontree/plant_lemontree05.jpg   	1	2	1	plant_lemontree05.jpg	plant2   	7	lemontree 	22	lemontree05 	224	alive    	1	still	0	natural 	1	n	0	0        	 	0.0	0	122.101246300008	122.201238599984	0.099992299976293
86950	100	99	stimuli/plant2/fern/plant_fern10.jpg             	1	2	1	plant_fern10.jpg     	plant2   	7	fern      	14	fern10      	149	alive    	1	still	0	natural 	1	n	0	0        	 	0.0	0	122.251260399993	122.351247099985	0.0999866999918595
87100	100	100	stimuli/plant2/palmtree/plant_palmtree09.jpg     	1	2	1	plant_palmtree09.jpg 	plant2   	7	palmtree  	27	palmtree09  	278	alive    	1	still	0	natural 	1	n	0	0        	 	0.0	0	122.401254700002	122.501261500001	0.100006799999392
87250	100	101	stimuli/movNat/hotspring/mn_hotspring02.jpg      	1	2	1	mn_hotspring02.jpg   	movNat   	3	hotspring 	21	hotspring02 	211	not_alive	0	moves	1	natural 	1	n	0	0        	 	0.0	0	122.551252799982	122.651258500002	0.10000570002012
87400	100	102	stimuli/movArt/boat/ma_boat04.jpg                	1	2	1	ma_boat04.jpg        	movArt   	2	boat      	2	boat04      	23	not_alive	0	moves	1	artefact	0	n	0	0        	 	0.0	0	122.701257599983	122.801250899996	0.0999933000130113
87550	100	103	stimuli/animals2/tiger/animal_tiger04.jpg        	1	2	1	animal_tiger04.jpg   	animals2 	1	tiger     	33	tiger04     	333	alive    	1	moves	1	natural 	1	n	0	0        	 	0.0	0	122.8512605	122.95125339998	0.0999928999808617
87700	100	104	stimuli/plant2/palmtree/plant_palmtree06.jpg     	1	2	1	plant_palmtree06.jpg 	plant2   	7	palmtree  	27	palmtree06  	275	alive    	1	still	0	natural 	1	n	0	0        	 	0.0	0	123.001292900008	123.101257100003	0.0999641999951564
87850	100	105	stimuli/nonmovNat/shell/nmn_shell05.jpg          	1	2	1	nmn_shell05.jpg      	nonmovNat	5	shell     	32	shell05     	324	not_alive	0	still	0	natural 	1	n	0	0        	 	0.0	0	123.151266900008	123.251263199985	0.0999962999776471
88000	100	106	stimuli/animals/horse/animal_horse07.jpg         	1	2	1	animal_horse07.jpg   	animals  	0	horse     	20	horse07     	206	alive    	1	moves	1	natural 	1	n	0	0        	 	0.0	0	123.301271700009	123.401266100002	0.0999943999922834
88150	100	107	stimuli/animals2/bee/animal_bee02.jpg            	1	2	1	animal_bee02.jpg     	animals2 	1	bee       	0	bee02       	1	alive    	1	moves	1	natural 	1	n	1	1        	f	-0.0078808999969624	1	123.451275400002	123.551267400006	0.0999920000031125
88300	100	108	stimuli/plant/vine/plant_vine10.jpg              	1	2	1	plant_vine10.jpg     	plant    	6	vine      	36	vine10      	369	alive    	1	still	0	natural 	1	n	0	0        	 	0.0	0	123.601281999989	123.701281999995	0.100000000005821
88450	100	109	stimuli/animals/horse/animal_horse03.jpg         	1	2	1	animal_horse03.jpg   	animals  	0	horse     	20	horse03     	202	alive    	1	moves	1	natural 	1	n	1	0        	 	0.0	0	123.75130969999	123.851277599984	0.0999678999942262
88600	100	110	stimuli/movNat/fire/mn_fire05.jpg                	1	2	1	mn_fire05.jpg        	movNat   	3	fire      	15	fire05      	154	not_alive	0	moves	1	natural 	1	n	0	0        	 	0.0	0	123.901286699984	124.001279799995	0.0999931000114884
88750	100	111	stimuli/nonmovArt/mug/nma_mug04.jpg              	1	2	1	nma_mug04.jpg        	nonmovArt	4	mug       	26	mug04       	263	not_alive	0	still	0	artefact	0	n	0	0        	 	0.0	0	124.051293600001	124.151283199986	0.0999895999848377
88900	100	112	stimuli/nonmovArt/clothespeg/nma_clothespeg04.jpg	1	2	1	nma_clothespeg04.jpg 	nonmovArt	4	clothespeg	8	clothespeg04	83	not_alive	0	still	0	artefact	0	n	0	1        	f	0.541989899997134	1	124.201294099999	124.301289399998	0.0999952999991365
89050	100	113	stimuli/animals/dog/animal_dog03.jpg             	1	2	1	animal_dog03.jpg     	animals  	0	dog       	11	dog03       	112	alive    	1	moves	1	natural 	1	n	0	0        	 	0.0	0	124.351297099987	124.451295000006	0.0999979000189342
89200	100	114	stimuli/movNat/waves/mn_waves07.jpg              	1	2	1	mn_waves07.jpg       	movNat   	3	waves     	38	waves07     	386	not_alive	0	moves	1	natural 	1	n	0	0        	 	0.0	0	124.501316899987	124.601293399988	0.0999765000015032
89350	100	115	stimuli/animals2/whale/animal_whale03.jpg        	1	2	1	animal_whale03.jpg   	animals2 	1	whale     	39	whale03     	392	alive    	1	moves	1	natural 	1	n	0	0        	 	0.0	0	124.651308400003	124.751298699994	0.0999902999901678
89500	100	116	stimuli/movNat/fire/mn_fire10.jpg                	1	2	1	mn_fire10.jpg        	movNat   	3	fire      	15	fire10      	159	not_alive	0	moves	1	natural 	1	n	0	0        	 	0.0	0	124.801311299991	124.901305699983	0.0999943999922834
89650	100	117	stimuli/plant2/fern/plant_fern09.jpg             	1	2	1	plant_fern09.jpg     	plant2   	7	fern      	14	fern09      	148	alive    	1	still	0	natural 	1	n	0	0        	 	0.0	0	124.951314500009	125.0513087	0.0999941999907605
89800	100	118	stimuli/nonmovArt/headphones/nma_headphones02.jpg	1	2	1	nma_headphones02.jpg 	nonmovArt	4	headphones	18	headphones02	181	not_alive	0	still	0	artefact	0	n	0	0        	 	0.0	0	125.101320199989	125.201309900003	0.099989700014703
89950	100	119	stimuli/plant2/lemontree/plant_lemontree01.jpg   	1	2	1	plant_lemontree01.jpg	plant2   	7	lemontree 	22	lemontree01 	220	alive    	1	still	0	natural 	1	n	0	0        	 	0.0	0	125.251321399992	125.351320299989	0.0999988999974448
90100	100	120	stimuli/animals/cat/animal_cat04.jpg             	1	2	1	animal_cat04.jpg     	animals  	0	cat       	6	cat04       	63	alive    	1	moves	1	natural 	1	n	0	0        	 	0.0	0	125.401322799997	125.501319100003	0.099996300006751
90250	100	121	stimuli/plant2/moss/plant_moss04.jpg             	1	2	1	plant_moss04.jpg     	plant2   	7	moss      	25	moss04      	253	alive    	1	still	0	natural 	1	n	0	0        	 	0.0	0	125.551328000001	125.651323099999	0.0999950999976136
90400	100	122	stimuli/plant2/lemontree/plant_lemontree10.jpg   	1	2	1	plant_lemontree10.jpg	plant2   	7	lemontree 	22	lemontree10 	229	alive    	1	still	0	natural 	1	n	0	0        	 	0.0	0	125.701333000005	125.801325200009	0.0999922000046354
90550	100	123	stimuli/movArt/train/ma_train01.jpg              	1	2	1	ma_train01.jpg       	movArt   	2	train     	34	train01     	340	not_alive	0	moves	1	artefact	0	n	0	0        	 	0.0	0	125.851336399995	125.951337599981	0.100001199985854
90700	100	124	stimuli/nonmovArt/headphones/nma_headphones06.jpg	1	2	1	nma_headphones06.jpg 	nonmovArt	4	headphones	18	headphones06	185	not_alive	0	still	0	artefact	0	n	0	0        	 	0.0	0	126.001339699986	126.101332999999	0.0999933000130113
90850	100	125	stimuli/animals/horse/animal_horse02.jpg         	1	2	1	animal_horse02.jpg   	animals  	0	horse     	20	horse02     	201	alive    	1	moves	1	natural 	1	n	0	0        	 	0.0	0	126.151345199993	126.251337399997	0.0999922000046354
91000	100	126	stimuli/movNat/fire/mn_fire04.jpg                	1	2	1	mn_fire04.jpg        	movNat   	3	fire      	15	fire04      	153	not_alive	0	moves	1	natural 	1	n	0	0        	 	0.0	0	126.301350099995	126.401340099983	0.0999899999878835
91150	100	127	stimuli/nonmovArt/bench/nma_bench02.jpg          	1	2	1	nma_bench02.jpg      	nonmovArt	4	bench     	1	bench02     	11	not_alive	0	still	0	artefact	0	n	0	0        	 	0.0	0	126.451354599994	126.551345399988	0.0999907999939751
91300	100	128	stimuli/movArt/boat/ma_boat04.jpg                	1	2	1	ma_boat04.jpg        	movArt   	2	boat      	2	boat04      	23	not_alive	0	moves	1	artefact	0	n	0	0        	 	0.0	0	126.601357799984	126.701386400004	0.100028600019868
91450	100	129	stimuli/movNat/waterfall/mn_waterfall09.jpg      	1	2	1	mn_waterfall09.jpg   	movNat   	3	waterfall 	37	waterfall09 	378	not_alive	0	moves	1	natural 	1	n	0	0        	 	0.0	0	126.751359199989	126.851354999992	0.0999958000029437
91600	100	130	stimuli/movNat/fire/mn_fire08.jpg                	1	2	1	mn_fire08.jpg        	movNat   	3	fire      	15	fire08      	157	not_alive	0	moves	1	natural 	1	n	0	0        	 	0.0	0	126.901364299993	127.001357400004	0.0999931000114884
91750	100	131	stimuli/nonmovArt/lock/nma_lock10.jpg            	1	2	1	nma_lock10.jpg       	nonmovArt	4	lock      	24	lock10      	249	not_alive	0	still	0	artefact	0	n	0	0        	 	0.0	0	127.051368999993	127.151362200006	0.0999932000122499
91900	100	132	stimuli/movNat/hotspring/mn_hotspring08.jpg      	1	2	1	mn_hotspring08.jpg   	movNat   	3	hotspring 	21	hotspring08 	217	not_alive	0	moves	1	natural 	1	n	0	0        	 	0.0	0	127.201373399992	127.301366300002	0.0999929000099655
92050	100	133	stimuli/animals2/tiger/animal_tiger06.jpg        	1	2	1	animal_tiger06.jpg   	animals2 	1	tiger     	33	tiger06     	335	alive    	1	moves	1	natural 	1	n	0	0        	 	0.0	0	127.351375500002	127.451397199999	0.100021699996432
92200	100	134	stimuli/animals/cat/animal_cat10.jpg             	1	2	1	animal_cat10.jpg     	animals  	0	cat       	6	cat10       	69	alive    	1	moves	1	natural 	1	n	0	0        	 	0.0	0	127.501380000002	127.601370699995	0.0999906999932136
92350	100	135	stimuli/plant/flower/plant_flower04.jpg          	1	2	1	plant_flower04.jpg   	plant    	6	flower    	16	flower04    	163	alive    	1	still	0	natural 	1	n	0	0        	 	0.0	0	127.651383899996	127.751378399989	0.0999944999930449
92500	100	136	stimuli/movArt/train/ma_train06.jpg              	1	2	1	ma_train06.jpg       	movArt   	2	train     	34	train06     	345	not_alive	0	moves	1	artefact	0	n	0	0        	 	0.0	0	127.801386000006	127.901378299983	0.099992299976293
92650	100	137	stimuli/plant/flower/plant_flower10.jpg          	1	2	1	plant_flower10.jpg   	plant    	6	flower    	16	flower10    	169	alive    	1	still	0	natural 	1	n	0	0        	 	0.0	0	127.951388599991	128.051389800006	0.100001200014958
92800	100	138	stimuli/movNat/hotspring/mn_hotspring02.jpg      	1	2	1	mn_hotspring02.jpg   	movNat   	3	hotspring 	21	hotspring02 	211	not_alive	0	moves	1	natural 	1	n	0	0        	 	0.0	0	128.101391999982	128.201402599982	0.100010599999223
92950	100	139	stimuli/nonmovNat/shell/nmn_shell10.jpg          	1	2	1	nmn_shell10.jpg      	nonmovNat	5	shell     	32	shell10     	329	not_alive	0	still	0	natural 	1	n	0	0        	 	0.0	0	128.251398599998	128.351388899988	0.0999902999901678
93100	100	140	stimuli/nonmovNat/crystal/nmn_crystal02.jpg      	1	2	1	nmn_crystal02.jpg    	nonmovNat	5	crystal   	10	crystal02   	101	not_alive	0	still	0	natural 	1	n	0	0        	 	0.0	0	128.401402799995	128.501393499988	0.0999906999932136
93250	100	141	stimuli/nonmovNat/crystal/nmn_crystal07.jpg      	1	2	1	nmn_crystal07.jpg    	nonmovNat	5	crystal   	10	crystal07   	106	not_alive	0	still	0	natural 	1	n	0	0        	 	0.0	0	128.551441599993	128.651402799995	0.0999612000014167
93400	100	142	stimuli/animals/cat/animal_cat08.jpg             	1	2	1	animal_cat08.jpg     	animals  	0	cat       	6	cat08       	67	alive    	1	moves	1	natural 	1	n	0	0        	 	0.0	0	128.701410699985	128.80141439999	0.100003700004891
93550	100	143	stimuli/movNat/river/mn_river07.jpg              	1	2	1	mn_river07.jpg       	movNat   	3	river     	29	river07     	296	not_alive	0	moves	1	natural 	1	n	0	0        	 	0.0	0	128.851412899996	128.951419699995	0.100006799999392
93700	100	144	stimuli/nonmovNat/rock/nmn_rock04.jpg            	1	2	1	nmn_rock04.jpg       	nonmovNat	5	rock      	30	rock04      	303	not_alive	0	still	0	natural 	1	n	0	0        	 	0.0	0	129.001424199989	129.101408899995	0.0999847000057343
93850	100	145	stimuli/plant/flower/plant_flower03.jpg          	1	2	1	plant_flower03.jpg   	plant    	6	flower    	16	flower03    	162	alive    	1	still	0	natural 	1	n	0	0        	 	0.0	0	129.151419400005	129.251413899998	0.0999944999930449
94000	100	146	stimuli/animals/dolphin/animal_dolphin10.jpg     	1	2	1	animal_dolphin10.jpg 	animals  	0	dolphin   	12	dolphin10   	129	alive    	1	moves	1	natural 	1	n	0	0        	 	0.0	0	129.301454200002	129.401420099981	0.0999658999789972
94150	100	147	stimuli/movArt/helicopter/ma_helicopter04.jpg    	1	2	1	ma_helicopter04.jpg  	movArt   	2	helicopter	19	helicopter04	193	not_alive	0	moves	1	artefact	0	n	0	1        	f	0.0	0	129.451430399989	129.551419800002	0.0999894000124186
94300	100	148	stimuli/nonmovArt/headphones/nma_headphones10.jpg	1	2	1	nma_headphones10.jpg 	nonmovArt	4	headphones	18	headphones10	189	not_alive	0	still	0	artefact	0	n	0	0        	 	0.0	0	129.601434299984	129.701428500004	0.0999942000198644
94450	100	149	stimuli/plant2/clover/plant_clover08.jpg         	1	2	1	plant_clover08.jpg   	plant2   	7	clover    	9	clover08    	97	alive    	1	still	0	natural 	1	n	1	0        	 	0.0	0	129.751434899983	129.8514287	0.0999938000168186
94600	100	150	stimuli/animals2/bee/animal_bee04.jpg            	1	2	1	animal_bee04.jpg     	animals2 	1	bee       	0	bee04       	3	alive    	1	moves	1	natural 	1	n	0	0        	 	0.0	0	129.9014455	130.001431699988	0.0999861999880522
94750	100	151	stimuli/animals2/whale/animal_whale08.jpg        	1	2	1	animal_whale08.jpg   	animals2 	1	whale     	39	whale08     	397	alive    	1	moves	1	natural 	1	n	0	1        	f	0.400192800007062	1	130.051467699988	130.151438300003	0.0999706000147853
94900	100	152	stimuli/movArt/boat/ma_boat10.jpg                	1	2	1	ma_boat10.jpg        	movArt   	2	boat      	2	boat10      	29	not_alive	0	moves	1	artefact	0	n	0	0        	 	0.0	0	130.201448300009	130.301440899988	0.0999925999785774
95050	100	153	stimuli/nonmovNat/cliff/nmn_cliff05.jpg          	1	2	1	nmn_cliff05.jpg      	nonmovNat	5	cliff     	7	cliff05     	74	not_alive	0	still	0	natural 	1	n	0	1        	f	0.691994699998759	1	130.351451099996	130.4514471	0.0999960000044666
95200	100	154	stimuli/animals/eagle/animal_eagle01.jpg         	1	2	1	animal_eagle01.jpg   	animals  	0	eagle     	13	eagle01     	130	alive    	1	moves	1	natural 	1	n	0	1        	f	0.841987000021618	1	130.501457300008	130.601449199981	0.0999918999732472
95350	100	155	stimuli/animals2/tiger/animal_tiger06.jpg        	1	2	1	animal_tiger06.jpg   	animals2 	1	tiger     	33	tiger06     	335	alive    	1	moves	1	natural 	1	n	0	0        	 	0.0	0	130.651466799987	130.751453400007	0.0999866000202019
95500	100	156	stimuli/movArt/boat/ma_boat04.jpg                	1	2	1	ma_boat04.jpg        	movArt   	2	boat      	2	boat04      	23	not_alive	0	moves	1	artefact	0	n	0	0        	 	0.0	0	130.801470999984	130.901457	0.0999860000156332
95650	100	157	stimuli/nonmovArt/clothespeg/nma_clothespeg03.jpg	1	2	1	nma_clothespeg03.jpg 	nonmovArt	4	clothespeg	8	clothespeg03	82	not_alive	0	still	0	artefact	0	n	0	0        	 	0.0	0	130.951467200008	131.051458800008	0.0999916000000667
95800	100	158	stimuli/animals2/bee/animal_bee01.jpg            	1	2	1	animal_bee01.jpg     	animals2 	1	bee       	0	bee01       	0	alive    	1	moves	1	natural 	1	n	0	0        	 	0.0	0	131.101470199996	131.201464599988	0.0999943999922834
95950	100	159	stimuli/animals2/whale/animal_whale09.jpg        	1	2	1	animal_whale09.jpg   	animals2 	1	whale     	39	whale09     	398	alive    	1	moves	1	natural 	1	n	0	0        	 	0.0	0	131.251472899981	131.351465899992	0.099993000010727
104684	100	160	stimuli/nonmovArt/headphones/nma_headphones06.jpg	1	3	1	nma_headphones06.jpg 	nonmovArt	4	headphones	18	headphones06	185	not_alive	0	still	0	artefact	0	n	0	0        	 	0.0	0	139.985033200006	140.085021699982	0.0999884999764618
104834	100	161	stimuli/nonmovNat/sand/nmn_sand10.jpg            	1	3	1	nmn_sand10.jpg       	nonmovNat	5	sand      	31	sand10      	319	not_alive	0	still	0	natural 	1	n	0	0        	 	0.0	0	140.135029099998	140.235026399983	0.0999972999852616
104984	100	162	stimuli/movArt/train/ma_train01.jpg              	1	3	1	ma_train01.jpg       	movArt   	2	train     	34	train01     	340	not_alive	0	moves	1	artefact	0	n	0	0        	 	0.0	0	140.285050000006	140.385028699995	0.0999786999891512
105134	100	163	stimuli/plant2/fern/plant_fern08.jpg             	1	3	1	plant_fern08.jpg     	plant2   	7	fern      	14	fern08      	147	alive    	1	still	0	natural 	1	n	0	0        	 	0.0	0	140.435064499994	140.535031200008	0.0999667000141926
105284	100	164	stimuli/nonmovNat/shell/nmn_shell08.jpg          	1	3	1	nmn_shell08.jpg      	nonmovNat	5	shell     	32	shell08     	327	not_alive	0	still	0	natural 	1	n	0	0        	 	0.0	0	140.585043900006	140.685039799981	0.0999958999746013
105434	100	165	stimuli/movNat/waves/mn_waves10.jpg              	1	3	1	mn_waves10.jpg       	movNat   	3	waves     	38	waves10     	389	not_alive	0	moves	1	natural 	1	n	0	0        	 	0.0	0	140.735048200004	140.835037399986	0.0999891999817919
105584	100	166	stimuli/animals2/tiger/animal_tiger07.jpg        	1	3	1	animal_tiger07.jpg   	animals2 	1	tiger     	33	tiger07     	336	alive    	1	moves	1	natural 	1	n	0	0        	 	0.0	0	140.885049799981	140.985044300003	0.0999945000221487
105734	100	167	stimuli/plant2/lemontree/plant_lemontree10.jpg   	1	3	1	plant_lemontree10.jpg	plant2   	7	lemontree 	22	lemontree10 	229	alive    	1	still	0	natural 	1	n	0	0        	 	0.0	0	141.035074299987	141.13504589998	0.099971599993296
105884	100	168	stimuli/movNat/river/mn_river01.jpg              	1	3	1	mn_river01.jpg       	movNat   	3	river     	29	river01     	290	not_alive	0	moves	1	natural 	1	n	0	0        	 	0.0	0	141.185071099986	141.285053800006	0.0999827000196092
106034	100	169	stimuli/plant/cactus/plant_cactus03.jpg          	1	3	1	plant_cactus03.jpg   	plant    	6	cactus    	4	cactus03    	42	alive    	1	still	0	natural 	1	n	0	0        	 	0.0	0	141.335059899982	141.435054200003	0.0999943000206258
106184	100	170	stimuli/animals/dolphin/animal_dolphin01.jpg     	1	3	1	animal_dolphin01.jpg 	animals  	0	dolphin   	12	dolphin01   	120	alive    	1	moves	1	natural 	1	n	1	0        	 	0.0	0	141.485066499998	141.585060699988	0.0999941999907605
106334	100	171	stimuli/nonmovNat/sand/nmn_sand10.jpg            	1	3	1	nmn_sand10.jpg       	nonmovNat	5	sand      	31	sand10      	319	not_alive	0	still	0	natural 	1	n	0	1        	f	0.241992600000231	1	141.6350676	141.735066599998	0.0999989999982063
106484	100	172	stimuli/movArt/bus/ma_bus01.jpg                  	1	3	1	ma_bus01.jpg         	movArt   	2	bus       	3	bus01       	30	not_alive	0	moves	1	artefact	0	n	0	0        	 	0.0	0	141.7850874	141.885069199983	0.0999817999836523
106634	100	173	stimuli/nonmovArt/mug/nma_mug07.jpg              	1	3	1	nma_mug07.jpg        	nonmovArt	4	mug       	26	mug07       	266	not_alive	0	still	0	artefact	0	n	0	0        	 	0.0	0	141.935080299998	142.035068500001	0.0999882000032812
106784	100	174	stimuli/plant/vine/plant_vine03.jpg              	1	3	1	plant_vine03.jpg     	plant    	6	vine      	36	vine03      	362	alive    	1	still	0	natural 	1	n	0	0        	 	0.0	0	142.085082500009	142.185074000008	0.0999914999993052
106934	100	175	stimuli/animals2/lemur/animal_lemur05.jpg        	1	3	1	animal_lemur05.jpg   	animals2 	1	lemur     	23	lemur05     	234	alive    	1	moves	1	natural 	1	n	1	0        	 	0.0	0	142.235082200001	142.335076699994	0.0999944999930449
107084	100	176	stimuli/plant/tree/plant_tree05.jpg              	1	3	1	plant_tree05.jpg     	plant    	6	tree      	35	tree05      	354	alive    	1	still	0	natural 	1	n	0	0        	 	0.0	0	142.385088599985	142.485082500003	0.09999390001758
107234	100	177	stimuli/movArt/bus/ma_bus06.jpg                  	1	3	1	ma_bus06.jpg         	movArt   	2	bus       	3	bus06       	35	not_alive	0	moves	1	artefact	0	n	0	1        	f	0.39203109999653	1	142.53508999999	142.635085299989	0.0999952999991365
107384	100	178	stimuli/plant2/clover/plant_clover06.jpg         	1	3	1	plant_clover06.jpg   	plant2   	7	clover    	9	clover06    	95	alive    	1	still	0	natural 	1	n	0	0        	 	0.0	0	142.685096400004	142.785095500003	0.0999990999989677
107534	100	179	stimuli/plant2/moss/plant_moss06.jpg             	1	3	1	plant_moss06.jpg     	plant2   	7	moss      	25	moss06      	255	alive    	1	still	0	natural 	1	n	0	0        	 	0.0	0	142.835097000003	142.93509069999	0.0999936999869533
107684	100	180	stimuli/nonmovArt/clothespeg/nma_clothespeg03.jpg	1	3	1	nma_clothespeg03.jpg 	nonmovArt	4	clothespeg	8	clothespeg03	82	not_alive	0	still	0	artefact	0	n	0	0        	 	0.0	0	142.985105200001	143.085102799989	0.099997599987546
107834	100	181	stimuli/plant/vine/plant_vine09.jpg              	1	3	1	plant_vine09.jpg     	plant    	6	vine      	36	vine09      	368	alive    	1	still	0	natural 	1	n	0	0        	 	0.0	0	143.135106100002	143.235099099984	0.0999929999816231
107984	100	182	stimuli/animals2/pigeon/animal_pigeon04.jpg      	1	3	1	animal_pigeon04.jpg  	animals2 	1	pigeon    	28	pigeon04    	283	alive    	1	moves	1	natural 	1	n	0	0        	 	0.0	0	143.285111100005	143.385127299989	0.100016199983656
108134	100	183	stimuli/plant/grass/plant_grass06.jpg            	1	3	1	plant_grass06.jpg    	plant    	6	grass     	17	grass06     	175	alive    	1	still	0	natural 	1	n	0	0        	 	0.0	0	143.435115500004	143.535107100004	0.0999916000000667
108284	100	184	stimuli/animals/dog/animal_dog07.jpg             	1	3	1	animal_dog07.jpg     	animals  	0	dog       	11	dog07       	116	alive    	1	moves	1	natural 	1	n	0	0        	 	0.0	0	143.585119199997	143.685111400002	0.0999922000046354
108434	100	185	stimuli/animals2/bee/animal_bee02.jpg            	1	3	1	animal_bee02.jpg     	animals2 	1	bee       	0	bee02       	1	alive    	1	moves	1	natural 	1	n	0	0        	 	0.0	0	143.735120099998	143.835114199988	0.0999940999899991
108584	100	186	stimuli/nonmovNat/crystal/nmn_crystal10.jpg      	1	3	1	nmn_crystal10.jpg    	nonmovNat	5	crystal   	10	crystal10   	109	not_alive	0	still	0	natural 	1	n	0	0        	 	0.0	0	143.885126299981	143.985121899983	0.0999956000014208
108734	100	187	stimuli/nonmovNat/cliff/nmn_cliff09.jpg          	1	3	1	nmn_cliff09.jpg      	nonmovNat	5	cliff     	7	cliff09     	78	not_alive	0	still	0	natural 	1	n	0	0        	 	0.0	0	144.035141900007	144.135149299982	0.100007399974857
108884	100	188	stimuli/plant2/fern/plant_fern01.jpg             	1	3	1	plant_fern01.jpg     	plant2   	7	fern      	14	fern01      	140	alive    	1	still	0	natural 	1	n	0	0        	 	0.0	0	144.185135499982	144.285127299983	0.0999918000015896
109034	100	189	stimuli/nonmovArt/lock/nma_lock09.jpg            	1	3	1	nma_lock09.jpg       	nonmovArt	4	lock      	24	lock09      	248	not_alive	0	still	0	artefact	0	n	0	0        	 	0.0	0	144.335136999987	144.435131400009	0.0999944000213873
109184	100	190	stimuli/plant/cactus/plant_cactus04.jpg          	1	3	1	plant_cactus04.jpg   	plant    	6	cactus    	4	cactus04    	43	alive    	1	still	0	natural 	1	n	0	0        	 	0.0	0	144.485141799989	144.585135700007	0.09999390001758
109334	100	191	stimuli/plant/tree/plant_tree06.jpg              	1	3	1	plant_tree06.jpg     	plant    	6	tree      	35	tree06      	355	alive    	1	still	0	natural 	1	n	0	0        	 	0.0	0	144.635144400003	144.735153499991	0.100009099987801
109484	100	192	stimuli/plant/tree/plant_tree02.jpg              	1	3	1	plant_tree02.jpg     	plant    	6	tree      	35	tree02      	351	alive    	1	still	0	natural 	1	n	0	0        	 	0.0	0	144.785150299984	144.885160000005	0.100009700021474
109634	100	193	stimuli/movArt/car/ma_car01.jpg                  	1	3	1	ma_car01.jpg         	movArt   	2	car       	5	car01       	50	not_alive	0	moves	1	artefact	0	n	0	0        	 	0.0	0	144.935150899983	145.035144099995	0.0999932000122499
109784	100	194	stimuli/movArt/helicopter/ma_helicopter04.jpg    	1	3	1	ma_helicopter04.jpg  	movArt   	2	helicopter	19	helicopter04	193	not_alive	0	moves	1	artefact	0	n	0	0        	 	0.0	0	145.0851578	145.185152399994	0.0999945999938063
109934	100	195	stimuli/animals/dolphin/animal_dolphin02.jpg     	1	3	1	animal_dolphin02.jpg 	animals  	0	dolphin   	12	dolphin02   	121	alive    	1	moves	1	natural 	1	n	0	0        	 	0.0	0	145.235170200001	145.335151699983	0.099981499981368
110084	100	196	stimuli/animals/horse/animal_horse10.jpg         	1	3	1	animal_horse10.jpg   	animals  	0	horse     	20	horse10     	209	alive    	1	moves	1	natural 	1	n	0	0        	 	0.0	0	145.385167	145.485176499991	0.100009499990847
110234	100	197	stimuli/plant2/moss/plant_moss09.jpg             	1	3	1	plant_moss09.jpg     	plant2   	7	moss      	25	moss09      	258	alive    	1	still	0	natural 	1	n	0	0        	 	0.0	0	145.535171099997	145.635171100002	0.100000000005821
110384	100	198	stimuli/movNat/hotspring/mn_hotspring02.jpg      	1	3	1	mn_hotspring02.jpg   	movNat   	3	hotspring 	21	hotspring02 	211	not_alive	0	moves	1	natural 	1	n	0	0        	 	0.0	0	145.685172900005	145.785165699985	0.0999927999801002
110534	100	199	stimuli/movNat/waves/mn_waves10.jpg              	1	3	1	mn_waves10.jpg       	movNat   	3	waves     	38	waves10     	389	not_alive	0	moves	1	natural 	1	n	0	0        	 	0.0	0	145.835175899992	145.93516719999	0.0999912999977823
110684	100	200	stimuli/nonmovArt/mug/nma_mug08.jpg              	1	3	1	nma_mug08.jpg        	nonmovArt	4	mug       	26	mug08       	267	not_alive	0	still	0	artefact	0	n	0	0        	 	0.0	0	145.985210899991	146.085175299988	0.0999643999966793
110834	100	201	stimuli/movNat/river/mn_river03.jpg              	1	3	1	mn_river03.jpg       	movNat   	3	river     	29	river03     	292	not_alive	0	moves	1	natural 	1	n	0	0        	 	0.0	0	146.135184399987	146.235184999998	0.100000600010389
110984	100	202	stimuli/animals/eagle/animal_eagle02.jpg         	1	3	1	animal_eagle02.jpg   	animals  	0	eagle     	13	eagle02     	131	alive    	1	moves	1	natural 	1	n	0	0        	 	0.0	0	146.285189999995	146.385180999991	0.099990999995498
111134	100	203	stimuli/animals2/lemur/animal_lemur10.jpg        	1	3	1	animal_lemur10.jpg   	animals2 	1	lemur     	23	lemur10     	239	alive    	1	moves	1	natural 	1	n	0	0        	 	0.0	0	146.435190599994	146.535207299981	0.100016699987464
111284	100	204	stimuli/nonmovArt/bench/nma_bench02.jpg          	1	3	1	nma_bench02.jpg      	nonmovArt	4	bench     	1	bench02     	11	not_alive	0	still	0	artefact	0	n	1	0        	 	0.0	0	146.585214799998	146.685189199983	0.0999743999855127
111434	100	205	stimuli/plant/vine/plant_vine01.jpg              	1	3	1	plant_vine01.jpg     	plant    	6	vine      	36	vine01      	360	alive    	1	still	0	natural 	1	n	0	1        	f	0.241983199986862	1	146.735216600006	146.835191099992	0.0999744999862742
111584	100	206	stimuli/nonmovNat/cliff/nmn_cliff04.jpg          	1	3	1	nmn_cliff04.jpg      	nonmovNat	5	cliff     	7	cliff04     	73	not_alive	0	still	0	natural 	1	n	0	0        	 	0.0	0	146.885204299993	146.9852006	0.099996300006751
111734	100	207	stimuli/animals/eagle/animal_eagle01.jpg         	1	3	1	animal_eagle01.jpg   	animals  	0	eagle     	13	eagle01     	130	alive    	1	moves	1	natural 	1	n	0	1        	f	0.44212960000732	1	147.035205799999	147.135198600008	0.0999928000092041
111884	100	208	stimuli/animals/dog/animal_dog08.jpg             	1	3	1	animal_dog08.jpg     	animals  	0	dog       	11	dog08       	117	alive    	1	moves	1	natural 	1	n	0	0        	 	0.0	0	147.185211100004	147.285204999993	0.0999938999884762
112034	100	209	stimuli/animals/horse/animal_horse04.jpg         	1	3	1	animal_horse04.jpg   	animals  	0	horse     	20	horse04     	203	alive    	1	moves	1	natural 	1	n	0	0        	 	0.0	0	147.335231300007	147.435206399998	0.0999750999908429
112184	100	210	stimuli/plant2/lemontree/plant_lemontree04.jpg   	1	3	1	plant_lemontree04.jpg	plant2   	7	lemontree 	22	lemontree04 	223	alive    	1	still	0	natural 	1	n	0	0        	 	0.0	0	147.485229699989	147.585212000005	0.0999823000165634
112334	100	211	stimuli/plant2/fern/plant_fern07.jpg             	1	3	1	plant_fern07.jpg     	plant2   	7	fern      	14	fern07      	146	alive    	1	still	0	natural 	1	n	0	0        	 	0.0	0	147.635219999996	147.735212900006	0.0999929000099655
112484	100	212	stimuli/movNat/waterfall/mn_waterfall04.jpg      	1	3	1	mn_waterfall04.jpg   	movNat   	3	waterfall 	37	waterfall04 	373	not_alive	0	moves	1	natural 	1	n	0	0        	 	0.0	0	147.785226200009	147.885221700009	0.0999955000006594
112634	100	213	stimuli/plant/cactus/plant_cactus02.jpg          	1	3	1	plant_cactus02.jpg   	plant    	6	cactus    	4	cactus02    	41	alive    	1	still	0	natural 	1	n	0	0        	 	0.0	0	147.935227699985	148.035226999986	0.0999993000004906
112784	100	214	stimuli/movArt/car/ma_car04.jpg                  	1	3	1	ma_car04.jpg         	movArt   	2	car       	5	car04       	53	not_alive	0	moves	1	artefact	0	n	0	0        	 	0.0	0	148.0852571	148.185229900002	0.0999728000024334
112934	100	215	stimuli/animals/dog/animal_dog04.jpg             	1	3	1	animal_dog04.jpg     	animals  	0	dog       	11	dog04       	113	alive    	1	moves	1	natural 	1	n	0	0        	 	0.0	0	148.235236299981	148.335228699987	0.0999924000061583
113084	100	216	stimuli/plant2/palmtree/plant_palmtree06.jpg     	1	3	1	plant_palmtree06.jpg 	plant2   	7	palmtree  	27	palmtree06  	275	alive    	1	still	0	natural 	1	n	0	0        	 	0.0	0	148.385241399985	148.48523369999	0.0999923000053968
113234	100	217	stimuli/movArt/car/ma_car06.jpg                  	1	3	1	ma_car06.jpg         	movArt   	2	car       	5	car06       	55	not_alive	0	moves	1	artefact	0	n	0	0        	 	0.0	0	148.535245799983	148.635236800008	0.0999910000246018
113384	100	218	stimuli/animals2/pigeon/animal_pigeon10.jpg      	1	3	1	animal_pigeon10.jpg  	animals2 	1	pigeon    	28	pigeon10    	289	alive    	1	moves	1	natural 	1	n	0	0        	 	0.0	0	148.6852487	148.785244300001	0.0999956000014208
113534	100	219	stimuli/plant2/palmtree/plant_palmtree04.jpg     	1	3	1	plant_palmtree04.jpg 	plant2   	7	palmtree  	27	palmtree04  	273	alive    	1	still	0	natural 	1	n	0	0        	 	0.0	0	148.835251299985	148.93524359999	0.0999923000053968
113684	100	220	stimuli/plant/grass/plant_grass05.jpg            	1	3	1	plant_grass05.jpg    	plant    	6	grass     	17	grass05     	174	alive    	1	still	0	natural 	1	n	0	0        	 	0.0	0	148.985263799987	149.08525199999	0.0999882000032812
113834	100	221	stimuli/animals2/pigeon/animal_pigeon03.jpg      	1	3	1	animal_pigeon03.jpg  	animals2 	1	pigeon    	28	pigeon03    	282	alive    	1	moves	1	natural 	1	n	0	0        	 	0.0	0	149.135264699988	149.235252199986	0.0999874999979511
113984	100	222	stimuli/animals2/whale/animal_whale03.jpg        	1	3	1	animal_whale03.jpg   	animals2 	1	whale     	39	whale03     	392	alive    	1	moves	1	natural 	1	n	0	0        	 	0.0	0	149.285264899983	149.385259200004	0.0999943000206258
114134	100	223	stimuli/movArt/helicopter/ma_helicopter09.jpg    	1	3	1	ma_helicopter09.jpg  	movArt   	2	helicopter	19	helicopter09	198	not_alive	0	moves	1	artefact	0	n	0	0        	 	0.0	0	149.435267099994	149.535258899996	0.0999918000015896
114284	100	224	stimuli/nonmovArt/mug/nma_mug05.jpg              	1	3	1	nma_mug05.jpg        	nonmovArt	4	mug       	26	mug05       	264	not_alive	0	still	0	artefact	0	n	0	0        	 	0.0	0	149.585274199984	149.685300399986	0.100026200001594
114434	100	225	stimuli/plant/grass/plant_grass06.jpg            	1	3	1	plant_grass06.jpg    	plant    	6	grass     	17	grass06     	175	alive    	1	still	0	natural 	1	n	0	1        	f	0.0	0	149.735277600004	149.835267899995	0.0999902999901678
114584	100	226	stimuli/plant2/clover/plant_clover02.jpg         	1	3	1	plant_clover02.jpg   	plant2   	7	clover    	9	clover02    	91	alive    	1	still	0	natural 	1	n	0	1        	f	0.0	0	149.885281700001	149.985277600004	0.0999959000037052
114734	100	227	stimuli/movNat/fire/mn_fire01.jpg                	1	3	1	mn_fire01.jpg        	movNat   	3	fire      	15	fire01      	150	not_alive	0	moves	1	natural 	1	n	0	1        	f	0.0	0	150.035281699995	150.135273099993	0.0999913999985438
114884	100	228	stimuli/nonmovNat/rock/nmn_rock03.jpg            	1	3	1	nmn_rock03.jpg       	nonmovNat	5	rock      	30	rock03      	302	not_alive	0	still	0	natural 	1	n	0	0        	 	0.0	0	150.185287200002	150.285281699995	0.0999944999930449
115034	100	229	stimuli/movNat/waterfall/mn_waterfall03.jpg      	1	3	1	mn_waterfall03.jpg   	movNat   	3	waterfall 	37	waterfall03 	372	not_alive	0	moves	1	natural 	1	n	0	0        	 	0.0	0	150.335290599993	150.435310500005	0.10001990001183
115184	100	230	stimuli/movArt/bus/ma_bus07.jpg                  	1	3	1	ma_bus07.jpg         	movArt   	2	bus       	3	bus07       	36	not_alive	0	moves	1	artefact	0	n	0	1        	f	0.0	0	150.485296600004	150.585289799987	0.099993199983146
115334	100	231	stimuli/plant2/palmtree/plant_palmtree10.jpg     	1	3	1	plant_palmtree10.jpg 	plant2   	7	palmtree  	27	palmtree10  	279	alive    	1	still	0	natural 	1	n	0	0        	 	0.0	0	150.635297900008	150.735290299985	0.0999923999770544
115484	100	232	stimuli/animals2/lemur/animal_lemur10.jpg        	1	3	1	animal_lemur10.jpg   	animals2 	1	lemur     	23	lemur10     	239	alive    	1	moves	1	natural 	1	n	0	1        	f	0.0	0	150.785304099991	150.885298699985	0.0999945999938063
115634	100	233	stimuli/nonmovNat/shell/nmn_shell06.jpg          	1	3	1	nmn_shell06.jpg      	nonmovNat	5	shell     	32	shell06     	325	not_alive	0	still	0	natural 	1	n	0	0        	 	0.0	0	150.935303500009	151.035326999991	0.100023499981035
115784	100	234	stimuli/nonmovNat/sand/nmn_sand09.jpg            	1	3	1	nmn_sand09.jpg       	nonmovNat	5	sand      	31	sand09      	318	not_alive	0	still	0	natural 	1	n	0	0        	 	0.0	0	151.085311400006	151.185319899989	0.100008499983232
115934	100	235	stimuli/nonmovNat/rock/nmn_rock02.jpg            	1	3	1	nmn_rock02.jpg       	nonmovNat	5	rock      	30	rock02      	301	not_alive	0	still	0	natural 	1	n	0	0        	 	0.0	0	151.23531399999	151.335303900007	0.0999899000162259
116084	100	236	stimuli/nonmovArt/clothespeg/nma_clothespeg03.jpg	1	3	1	nma_clothespeg03.jpg 	nonmovArt	4	clothespeg	8	clothespeg03	82	not_alive	0	still	0	artefact	0	n	0	0        	 	0.0	0	151.385318599991	151.485311500001	0.0999929000099655
116234	100	237	stimuli/movNat/waves/mn_waves04.jpg              	1	3	1	mn_waves04.jpg       	movNat   	3	waves     	38	waves04     	383	not_alive	0	moves	1	natural 	1	n	0	0        	 	0.0	0	151.535340300004	151.635312400002	0.0999720999971032
116384	100	238	stimuli/nonmovArt/lock/nma_lock10.jpg            	1	3	1	nma_lock10.jpg       	nonmovArt	4	lock      	24	lock10      	249	not_alive	0	still	0	artefact	0	n	0	0        	 	0.0	0	151.685328399995	151.7853359	0.100007500004722
116534	100	239	stimuli/nonmovArt/bench/nma_bench06.jpg          	1	3	1	nma_bench06.jpg      	nonmovArt	4	bench     	1	bench06     	15	not_alive	0	still	0	artefact	0	n	0	0        	 	0.0	0	151.835334300005	151.935323199985	0.0999888999795076
122301	100	240	stimuli/movNat/river/mn_river05.jpg              	1	4	1	mn_river05.jpg       	movNat   	3	river     	29	river05     	294	not_alive	0	moves	1	natural 	1	n	0	0        	 	0.0	0	157.602159200003	157.702143200004	0.0999840000004042
122451	100	241	stimuli/nonmovNat/sand/nmn_sand06.jpg            	1	4	1	nmn_sand06.jpg       	nonmovNat	5	sand      	31	sand06      	315	not_alive	0	still	0	natural 	1	n	0	0        	 	0.0	0	157.752155199996	157.852145799989	0.0999905999924522
122601	100	242	stimuli/plant2/lemontree/plant_lemontree08.jpg   	1	4	1	plant_lemontree08.jpg	plant2   	7	lemontree 	22	lemontree08 	227	alive    	1	still	0	natural 	1	n	0	0        	 	0.0	0	157.902157300006	158.002149499982	0.0999921999755316
122751	100	243	stimuli/nonmovArt/mug/nma_mug10.jpg              	1	4	1	nma_mug10.jpg        	nonmovArt	4	mug       	26	mug10       	269	not_alive	0	still	0	artefact	0	n	0	0        	 	0.0	0	158.052161900006	158.152154999989	0.0999930999823846
122901	100	244	stimuli/nonmovArt/bench/nma_bench07.jpg          	1	4	1	nma_bench07.jpg      	nonmovArt	4	bench     	1	bench07     	16	not_alive	0	still	0	artefact	0	n	0	0        	 	0.0	0	158.202163699985	158.302156099991	0.0999924000061583
123051	100	245	stimuli/movArt/helicopter/ma_helicopter10.jpg    	1	4	1	ma_helicopter10.jpg  	movArt   	2	helicopter	19	helicopter10	199	not_alive	0	moves	1	artefact	0	n	0	0        	 	0.0	0	158.352170500002	158.452161199995	0.0999906999932136
123201	100	246	stimuli/movArt/helicopter/ma_helicopter03.jpg    	1	4	1	ma_helicopter03.jpg  	movArt   	2	helicopter	19	helicopter03	192	not_alive	0	moves	1	artefact	0	n	0	0        	 	0.0	0	158.502176099981	158.602167100005	0.0999910000246018
123351	100	247	stimuli/movNat/waves/mn_waves08.jpg              	1	4	1	mn_waves08.jpg       	movNat   	3	waves     	38	waves08     	387	not_alive	0	moves	1	natural 	1	n	0	0        	 	0.0	0	158.652179199998	158.752181899996	0.100002699997276
123501	100	248	stimuli/animals/eagle/animal_eagle06.jpg         	1	4	1	animal_eagle06.jpg   	animals  	0	eagle     	13	eagle06     	135	alive    	1	moves	1	natural 	1	n	0	0        	 	0.0	0	158.8021801	158.902172300004	0.0999922000046354
123651	100	249	stimuli/movNat/waterfall/mn_waterfall07.jpg      	1	4	1	mn_waterfall07.jpg   	movNat   	3	waterfall 	37	waterfall07 	376	not_alive	0	moves	1	natural 	1	n	0	0        	 	0.0	0	158.952185900009	159.052177400008	0.0999914999993052
123801	100	250	stimuli/plant/flower/plant_flower05.jpg          	1	4	1	plant_flower05.jpg   	plant    	6	flower    	16	flower05    	164	alive    	1	still	0	natural 	1	n	0	0        	 	0.0	0	159.102188999997	159.202181200002	0.0999922000046354
123951	100	251	stimuli/nonmovArt/clothespeg/nma_clothespeg06.jpg	1	4	1	nma_clothespeg06.jpg 	nonmovArt	4	clothespeg	8	clothespeg06	85	not_alive	0	still	0	artefact	0	n	0	0        	 	0.0	0	159.252189199993	159.352185700001	0.0999965000082739
124101	100	252	stimuli/nonmovArt/lock/nma_lock01.jpg            	1	4	1	nma_lock01.jpg       	nonmovArt	4	lock      	24	lock01      	240	not_alive	0	still	0	artefact	0	n	0	0        	 	0.0	0	159.402195500006	159.502187899983	0.0999923999770544
124251	100	253	stimuli/nonmovNat/cliff/nmn_cliff09.jpg          	1	4	1	nmn_cliff09.jpg      	nonmovNat	5	cliff     	7	cliff09     	78	not_alive	0	still	0	natural 	1	n	0	0        	 	0.0	0	159.552198499994	159.652192000009	0.0999935000145342
124401	100	254	stimuli/plant/tree/plant_tree07.jpg              	1	4	1	plant_tree07.jpg     	plant    	6	tree      	35	tree07      	356	alive    	1	still	0	natural 	1	n	0	0        	 	0.0	0	159.702204600006	159.802198099991	0.0999934999854304
124551	100	255	stimuli/nonmovArt/clothespeg/nma_clothespeg08.jpg	1	4	1	nma_clothespeg08.jpg 	nonmovArt	4	clothespeg	8	clothespeg08	87	not_alive	0	still	0	artefact	0	n	0	0        	 	0.0	0	159.852225199982	159.952197899984	0.0999727000016719
124701	100	256	stimuli/plant2/fern/plant_fern09.jpg             	1	4	1	plant_fern09.jpg     	plant2   	7	fern      	14	fern09      	148	alive    	1	still	0	natural 	1	n	0	0        	 	0.0	0	160.002211099985	160.102203399991	0.0999923000053968
124851	100	257	stimuli/movNat/fire/mn_fire04.jpg                	1	4	1	mn_fire04.jpg        	movNat   	3	fire      	15	fire04      	153	not_alive	0	moves	1	natural 	1	n	0	0        	 	0.0	0	160.152218100004	160.252206000005	0.0999879000009969
125001	100	258	stimuli/plant2/fern/plant_fern04.jpg             	1	4	1	plant_fern04.jpg     	plant2   	7	fern      	14	fern04      	143	alive    	1	still	0	natural 	1	n	0	0        	 	0.0	0	160.302217599994	160.402212599991	0.0999949999968521
125151	100	259	stimuli/animals/eagle/animal_eagle06.jpg         	1	4	1	animal_eagle06.jpg   	animals  	0	eagle     	13	eagle06     	135	alive    	1	moves	1	natural 	1	n	0	0        	 	0.0	0	160.452222299995	160.552214700001	0.0999924000061583
125301	100	260	stimuli/animals/dog/animal_dog02.jpg             	1	4	1	animal_dog02.jpg     	animals  	0	dog       	11	dog02       	111	alive    	1	moves	1	natural 	1	n	0	0        	 	0.0	0	160.602225299983	160.70221779999	0.0999925000069197
125451	100	261	stimuli/animals2/pigeon/animal_pigeon06.jpg      	1	4	1	animal_pigeon06.jpg  	animals2 	1	pigeon    	28	pigeon06    	285	alive    	1	moves	1	natural 	1	n	0	0        	 	0.0	0	160.752230199985	160.852224100003	0.09999390001758
125601	100	262	stimuli/movNat/hotspring/mn_hotspring05.jpg      	1	4	1	mn_hotspring05.jpg   	movNat   	3	hotspring 	21	hotspring05 	214	not_alive	0	moves	1	natural 	1	n	0	0        	 	0.0	0	160.902235899994	161.002225500008	0.0999896000139415
125751	100	263	stimuli/plant2/clover/plant_clover09.jpg         	1	4	1	plant_clover09.jpg   	plant2   	7	clover    	9	clover09    	98	alive    	1	still	0	natural 	1	n	0	0        	 	0.0	0	161.052235199983	161.152228399995	0.0999932000122499
125901	100	264	stimuli/plant/grass/plant_grass08.jpg            	1	4	1	plant_grass08.jpg    	plant    	6	grass     	17	grass08     	177	alive    	1	still	0	natural 	1	n	0	0        	 	0.0	0	161.202240199986	161.302235999989	0.0999958000029437
126051	100	265	stimuli/animals2/lemur/animal_lemur04.jpg        	1	4	1	animal_lemur04.jpg   	animals2 	1	lemur     	23	lemur04     	233	alive    	1	moves	1	natural 	1	n	0	0        	 	0.0	0	161.352258700004	161.452237399993	0.0999786999891512
126201	100	266	stimuli/plant/cactus/plant_cactus10.jpg          	1	4	1	plant_cactus10.jpg   	plant    	6	cactus    	4	cactus10    	49	alive    	1	still	0	natural 	1	n	0	0        	 	0.0	0	161.502247299999	161.602241199987	0.0999938999884762
126351	100	267	stimuli/plant/tree/plant_tree07.jpg              	1	4	1	plant_tree07.jpg     	plant    	6	tree      	35	tree07      	356	alive    	1	still	0	natural 	1	n	0	0        	 	0.0	0	161.652252400003	161.752245899988	0.0999934999854304
126501	100	268	stimuli/animals2/whale/animal_whale02.jpg        	1	4	1	animal_whale02.jpg   	animals2 	1	whale     	39	whale02     	391	alive    	1	moves	1	natural 	1	n	0	0        	 	0.0	0	161.802256700001	161.902251299995	0.0999945999938063
126651	100	269	stimuli/movNat/waterfall/mn_waterfall06.jpg      	1	4	1	mn_waterfall06.jpg   	movNat   	3	waterfall 	37	waterfall06 	375	not_alive	0	moves	1	natural 	1	n	0	0        	 	0.0	0	161.952260299993	162.052251099987	0.0999907999939751
126801	100	270	stimuli/plant2/moss/plant_moss05.jpg             	1	4	1	plant_moss05.jpg     	plant2   	7	moss      	25	moss05      	254	alive    	1	still	0	natural 	1	n	0	0        	 	0.0	0	162.102265099995	162.202256499993	0.0999913999985438
126951	100	271	stimuli/movArt/boat/ma_boat03.jpg                	1	4	1	ma_boat03.jpg        	movArt   	2	boat      	2	boat03      	22	not_alive	0	moves	1	artefact	0	n	0	0        	 	0.0	0	162.252268499986	162.352263599983	0.0999950999976136
127101	100	272	stimuli/nonmovNat/shell/nmn_shell03.jpg          	1	4	1	nmn_shell03.jpg      	nonmovNat	5	shell     	32	shell03     	322	not_alive	0	still	0	natural 	1	n	0	0        	 	0.0	0	162.402270499995	162.502264799987	0.099994299991522
127251	100	273	stimuli/nonmovArt/bench/nma_bench03.jpg          	1	4	1	nma_bench03.jpg      	nonmovArt	4	bench     	1	bench03     	12	not_alive	0	still	0	artefact	0	n	0	0        	 	0.0	0	162.552275399998	162.652267400001	0.0999920000031125
127401	100	274	stimuli/nonmovNat/shell/nmn_shell07.jpg          	1	4	1	nmn_shell07.jpg      	nonmovNat	5	shell     	32	shell07     	326	not_alive	0	still	0	natural 	1	n	0	0        	 	0.0	0	162.702278599987	162.802274499991	0.0999959000037052
127551	100	275	stimuli/movNat/fire/mn_fire09.jpg                	1	4	1	mn_fire09.jpg        	movNat   	3	fire      	15	fire09      	158	not_alive	0	moves	1	natural 	1	n	0	0        	 	0.0	0	162.852283999993	162.952277200005	0.0999932000122499
127701	100	276	stimuli/animals/cat/animal_cat02.jpg             	1	4	1	animal_cat02.jpg     	animals  	0	cat       	6	cat02       	61	alive    	1	moves	1	natural 	1	n	0	0        	 	0.0	0	163.002287999989	163.102280799998	0.0999928000092041
127851	100	277	stimuli/nonmovArt/headphones/nma_headphones01.jpg	1	4	1	nma_headphones01.jpg 	nonmovArt	4	headphones	18	headphones01	180	not_alive	0	still	0	artefact	0	n	0	0        	 	0.0	0	163.152291000006	163.252283099981	0.0999920999747701
128001	100	278	stimuli/movNat/hotspring/mn_hotspring10.jpg      	1	4	1	mn_hotspring10.jpg   	movNat   	3	hotspring 	21	hotspring10 	219	not_alive	0	moves	1	natural 	1	n	1	0        	 	0.0	0	163.302293099987	163.402287000004	0.09999390001758
128151	100	279	stimuli/plant/flower/plant_flower02.jpg          	1	4	1	plant_flower02.jpg   	plant    	6	flower    	16	flower02    	161	alive    	1	still	0	natural 	1	n	0	0        	 	0.0	0	163.452299099998	163.552293099987	0.0999939999892376
128301	100	280	stimuli/animals2/tiger/animal_tiger08.jpg        	1	4	1	animal_tiger08.jpg   	animals2 	1	tiger     	33	tiger08     	337	alive    	1	moves	1	natural 	1	n	0	1        	d	0.292123000021093	1	163.602303599997	163.702296200005	0.0999926000076812
128451	100	281	stimuli/nonmovNat/crystal/nmn_crystal03.jpg      	1	4	1	nmn_crystal03.jpg    	nonmovNat	5	crystal   	10	crystal03   	102	not_alive	0	still	0	natural 	1	n	0	0        	 	0.0	0	163.752303999994	163.852301200008	0.099997200013604
128601	100	282	stimuli/nonmovNat/sand/nmn_sand09.jpg            	1	4	1	nmn_sand09.jpg       	nonmovNat	5	sand      	31	sand09      	318	not_alive	0	still	0	natural 	1	n	0	0        	 	0.0	0	163.902309099998	164.002303299989	0.0999941999907605
128751	100	283	stimuli/nonmovNat/rock/nmn_rock07.jpg            	1	4	1	nmn_rock07.jpg       	nonmovNat	5	rock      	30	rock07      	306	not_alive	0	still	0	natural 	1	n	0	0        	 	0.0	0	164.052312799991	164.152307599987	0.0999947999953292
128901	100	284	stimuli/animals2/whale/animal_whale06.jpg        	1	4	1	animal_whale06.jpg   	animals2 	1	whale     	39	whale06     	395	alive    	1	moves	1	natural 	1	n	0	0        	 	0.0	0	164.202316499985	164.302309299994	0.0999928000092041
129051	100	285	stimuli/animals/horse/animal_horse04.jpg         	1	4	1	animal_horse04.jpg   	animals  	0	horse     	20	horse04     	203	alive    	1	moves	1	natural 	1	n	0	0        	 	0.0	0	164.352320400008	164.452316499985	0.0999960999761242
129201	100	286	stimuli/plant2/palmtree/plant_palmtree10.jpg     	1	4	1	plant_palmtree10.jpg 	plant2   	7	palmtree  	27	palmtree10  	279	alive    	1	still	0	natural 	1	n	1	0        	 	0.0	0	164.502325499983	164.602317599987	0.0999921000038739
129351	100	287	stimuli/movNat/waves/mn_waves06.jpg              	1	4	1	mn_waves06.jpg       	movNat   	3	waves     	38	waves06     	385	not_alive	0	moves	1	natural 	1	n	0	0        	 	0.0	0	164.652329300006	164.752323099994	0.0999937999877147
129501	100	288	stimuli/nonmovNat/cliff/nmn_cliff07.jpg          	1	4	1	nmn_cliff07.jpg      	nonmovNat	5	cliff     	7	cliff07     	76	not_alive	0	still	0	natural 	1	n	0	1        	d	0.292123999999603	1	164.802335999993	164.902326499985	0.0999904999916907
129651	100	289	stimuli/plant2/moss/plant_moss05.jpg             	1	4	1	plant_moss05.jpg     	plant2   	7	moss      	25	moss05      	254	alive    	1	still	0	natural 	1	n	0	0        	 	0.0	0	164.952335399983	165.052329099999	0.0999937000160571
129801	100	290	stimuli/animals2/bee/animal_bee04.jpg            	1	4	1	animal_bee04.jpg     	animals2 	1	bee       	0	bee04       	3	alive    	1	moves	1	natural 	1	n	0	0        	 	0.0	0	165.102340499987	165.202337299997	0.0999968000105582
129951	100	291	stimuli/animals2/whale/animal_whale10.jpg        	1	4	1	animal_whale10.jpg   	animals2 	1	whale     	39	whale10     	399	alive    	1	moves	1	natural 	1	n	0	0        	 	0.0	0	165.252344100009	165.352337199991	0.0999930999823846
130101	100	292	stimuli/animals/horse/animal_horse09.jpg         	1	4	1	animal_horse09.jpg   	animals  	0	horse     	20	horse09     	208	alive    	1	moves	1	natural 	1	n	0	0        	 	0.0	0	165.402355099999	165.502341499989	0.0999863999895752
130251	100	293	stimuli/nonmovNat/rock/nmn_rock05.jpg            	1	4	1	nmn_rock05.jpg       	nonmovNat	5	rock      	30	rock05      	304	not_alive	0	still	0	natural 	1	n	0	0        	 	0.0	0	165.552351399994	165.652343099995	0.0999917000008281
130401	100	294	stimuli/movArt/train/ma_train02.jpg              	1	4	1	ma_train02.jpg       	movArt   	2	train     	34	train02     	341	not_alive	0	moves	1	artefact	0	n	0	0        	 	0.0	0	165.702354399982	165.802349899983	0.0999955000006594
130551	100	295	stimuli/movNat/fire/mn_fire01.jpg                	1	4	1	mn_fire01.jpg        	movNat   	3	fire      	15	fire01      	150	not_alive	0	moves	1	natural 	1	n	0	0        	 	0.0	0	165.852356599993	165.952352799999	0.0999962000059895
130701	100	296	stimuli/nonmovArt/headphones/nma_headphones05.jpg	1	4	1	nma_headphones05.jpg 	nonmovArt	4	headphones	18	headphones05	184	not_alive	0	still	0	artefact	0	n	0	0        	 	0.0	0	166.002363300009	166.102356299991	0.0999929999816231
130851	100	297	stimuli/plant/cactus/plant_cactus08.jpg          	1	4	1	plant_cactus08.jpg   	plant    	6	cactus    	4	cactus08    	47	alive    	1	still	0	natural 	1	n	0	0        	 	0.0	0	166.152367200004	166.252359400009	0.0999922000046354
131001	100	298	stimuli/nonmovNat/rock/nmn_rock04.jpg            	1	4	1	nmn_rock04.jpg       	nonmovNat	5	rock      	30	rock04      	303	not_alive	0	still	0	natural 	1	n	0	0        	 	0.0	0	166.302374399995	166.402365599992	0.0999911999970209
131151	100	299	stimuli/plant2/palmtree/plant_palmtree07.jpg     	1	4	1	plant_palmtree07.jpg 	plant2   	7	palmtree  	27	palmtree07  	276	alive    	1	still	0	natural 	1	n	0	0        	 	0.0	0	166.452374399989	166.552369199984	0.0999947999953292
131301	100	300	stimuli/plant/vine/plant_vine05.jpg              	1	4	1	plant_vine05.jpg     	plant    	6	vine      	36	vine05      	364	alive    	1	still	0	natural 	1	n	1	0        	 	0.0	0	166.602378699987	166.702370199986	0.0999914999993052
131451	100	301	stimuli/movArt/car/ma_car07.jpg                  	1	4	1	ma_car07.jpg         	movArt   	2	car       	5	car07       	56	not_alive	0	moves	1	artefact	0	n	0	0        	 	0.0	0	166.752382300008	166.852374099981	0.0999917999724858
131601	100	302	stimuli/plant2/palmtree/plant_palmtree10.jpg     	1	4	1	plant_palmtree10.jpg 	plant2   	7	palmtree  	27	palmtree10  	279	alive    	1	still	0	natural 	1	n	0	1        	d	0.391983600013191	1	166.902384799992	167.002378300007	0.0999935000145342
131751	100	303	stimuli/movNat/river/mn_river06.jpg              	1	4	1	mn_river06.jpg       	movNat   	3	river     	29	river06     	295	not_alive	0	moves	1	natural 	1	n	0	0        	 	0.0	0	167.052393399994	167.152383100009	0.099989700014703
131901	100	304	stimuli/movNat/waterfall/mn_waterfall06.jpg      	1	4	1	mn_waterfall06.jpg   	movNat   	3	waterfall 	37	waterfall06 	375	not_alive	0	moves	1	natural 	1	n	0	0        	 	0.0	0	167.202393499989	167.302390900004	0.0999974000151269
132051	100	305	stimuli/movArt/boat/ma_boat09.jpg                	1	4	1	ma_boat09.jpg        	movArt   	2	boat      	2	boat09      	28	not_alive	0	moves	1	artefact	0	n	0	0        	 	0.0	0	167.352396500006	167.452391600003	0.0999950999976136
132201	100	306	stimuli/animals/dolphin/animal_dolphin05.jpg     	1	4	1	animal_dolphin05.jpg 	animals  	0	dolphin   	12	dolphin05   	124	alive    	1	moves	1	natural 	1	n	0	0        	 	0.0	0	167.502400500001	167.602393999987	0.0999934999854304
132351	100	307	stimuli/animals2/tiger/animal_tiger08.jpg        	1	4	1	animal_tiger08.jpg   	animals2 	1	tiger     	33	tiger08     	337	alive    	1	moves	1	natural 	1	n	0	0        	 	0.0	0	167.652403299988	167.752400199999	0.0999969000113197
132501	100	308	stimuli/plant2/lemontree/plant_lemontree08.jpg   	1	4	1	plant_lemontree08.jpg	plant2   	7	lemontree 	22	lemontree08 	227	alive    	1	still	0	natural 	1	n	0	0        	 	0.0	0	167.802410999982	167.902402799984	0.0999918000015896
132651	100	309	stimuli/nonmovArt/clothespeg/nma_clothespeg02.jpg	1	4	1	nma_clothespeg02.jpg 	nonmovArt	4	clothespeg	8	clothespeg02	81	not_alive	0	still	0	artefact	0	n	0	0        	 	0.0	0	167.952411999984	168.052406500006	0.0999945000221487
132801	100	310	stimuli/nonmovArt/headphones/nma_headphones10.jpg	1	4	1	nma_headphones10.jpg 	nonmovArt	4	headphones	18	headphones10	189	not_alive	0	still	0	artefact	0	n	0	0        	 	0.0	0	168.102415300003	168.202409999998	0.0999946999945678
132951	100	311	stimuli/nonmovNat/cliff/nmn_cliff05.jpg          	1	4	1	nmn_cliff05.jpg      	nonmovNat	5	cliff     	7	cliff05     	74	not_alive	0	still	0	natural 	1	n	0	0        	 	0.0	0	168.252419099997	168.352415700007	0.0999966000090353
133101	100	312	stimuli/nonmovNat/crystal/nmn_crystal09.jpg      	1	4	1	nmn_crystal09.jpg    	nonmovNat	5	crystal   	10	crystal09   	108	not_alive	0	still	0	natural 	1	n	0	0        	 	0.0	0	168.402423599997	168.502417599986	0.0999939999892376
133251	100	313	stimuli/plant2/clover/plant_clover04.jpg         	1	4	1	plant_clover04.jpg   	plant2   	7	clover    	9	clover04    	93	alive    	1	still	0	natural 	1	n	0	0        	 	0.0	0	168.55243109999	168.652425799984	0.0999946999945678
133401	100	314	stimuli/animals2/pigeon/animal_pigeon06.jpg      	1	4	1	animal_pigeon06.jpg  	animals2 	1	pigeon    	28	pigeon06    	285	alive    	1	moves	1	natural 	1	n	0	0        	 	0.0	0	168.702433500002	168.802424199996	0.0999906999932136
133551	100	315	stimuli/plant2/lemontree/plant_lemontree01.jpg   	1	4	1	plant_lemontree01.jpg	plant2   	7	lemontree 	22	lemontree01 	220	alive    	1	still	0	natural 	1	n	0	0        	 	0.0	0	168.852437499998	168.952428399993	0.0999908999947365
133701	100	316	stimuli/plant/flower/plant_flower02.jpg          	1	4	1	plant_flower02.jpg   	plant    	6	flower    	16	flower02    	161	alive    	1	still	0	natural 	1	n	0	0        	 	0.0	0	169.002440299984	169.102432199987	0.099991900002351
133851	100	317	stimuli/animals/cat/animal_cat10.jpg             	1	4	1	animal_cat10.jpg     	animals  	0	cat       	6	cat10       	69	alive    	1	moves	1	natural 	1	n	0	0        	 	0.0	0	169.152447	169.252439500007	0.0999925000069197
134001	100	318	stimuli/movArt/boat/ma_boat08.jpg                	1	4	1	ma_boat08.jpg        	movArt   	2	boat      	2	boat08      	27	not_alive	0	moves	1	artefact	0	n	0	1        	d	0.0	0	169.302446299989	169.402440999984	0.0999946999945678
134151	100	319	stimuli/plant/tree/plant_tree10.jpg              	1	4	1	plant_tree10.jpg     	plant    	6	tree      	35	tree10      	359	alive    	1	still	0	natural 	1	n	0	0        	 	0.0	0	169.452457599982	169.552444200002	0.0999866000202019
141052	100	320	stimuli/animals/dog/animal_dog06.jpg             	1	5	1	animal_dog06.jpg     	animals  	0	dog       	11	dog06       	115	alive    	1	moves	1	natural 	1	n	0	0        	 	0.0	0	176.352630599984	176.452620099997	0.0999895000131801
141202	100	321	stimuli/plant2/clover/plant_clover04.jpg         	1	5	1	plant_clover04.jpg   	plant2   	7	clover    	9	clover04    	93	alive    	1	still	0	natural 	1	n	0	0        	 	0.0	0	176.502630400006	176.602618300007	0.0999879000009969
141352	100	322	stimuli/movNat/river/mn_river08.jpg              	1	5	1	mn_river08.jpg       	movNat   	3	river     	29	river08     	297	not_alive	0	moves	1	natural 	1	n	0	0        	 	0.0	0	176.652630299999	176.752622	0.0999917000008281
141502	100	323	stimuli/movArt/bus/ma_bus07.jpg                  	1	5	1	ma_bus07.jpg         	movArt   	2	bus       	3	bus07       	36	not_alive	0	moves	1	artefact	0	n	0	0        	 	0.0	0	176.802633899992	176.902625199989	0.0999912999977823
141652	100	324	stimuli/animals2/pigeon/animal_pigeon08.jpg      	1	5	1	animal_pigeon08.jpg  	animals2 	1	pigeon    	28	pigeon08    	287	alive    	1	moves	1	natural 	1	n	0	0        	 	0.0	0	176.9526357	177.052657099994	0.100021399994148
141802	100	325	stimuli/animals2/bee/animal_bee03.jpg            	1	5	1	animal_bee03.jpg     	animals2 	1	bee       	0	bee03       	2	alive    	1	moves	1	natural 	1	n	0	0        	 	0.0	0	177.102639899997	177.202632300003	0.0999924000061583
141952	100	326	stimuli/animals2/lemur/animal_lemur06.jpg        	1	5	1	animal_lemur06.jpg   	animals2 	1	lemur     	23	lemur06     	235	alive    	1	moves	1	natural 	1	n	0	0        	 	0.0	0	177.252642499981	177.352640800003	0.09999830002198
142102	100	327	stimuli/animals2/tiger/animal_tiger03.jpg        	1	5	1	animal_tiger03.jpg   	animals2 	1	tiger     	33	tiger03     	332	alive    	1	moves	1	natural 	1	n	0	0        	 	0.0	0	177.402646300005	177.502639699989	0.0999933999846689
142252	100	328	stimuli/movArt/bus/ma_bus10.jpg                  	1	5	1	ma_bus10.jpg         	movArt   	2	bus       	3	bus10       	39	not_alive	0	moves	1	artefact	0	n	0	0        	 	0.0	0	177.552653099992	177.652657300001	0.100004200008698
142402	100	329	stimuli/nonmovArt/mug/nma_mug02.jpg              	1	5	1	nma_mug02.jpg        	nonmovArt	4	mug       	26	mug02       	261	not_alive	0	still	0	artefact	0	n	0	0        	 	0.0	0	177.702658399998	177.802680599998	0.10002220000024
142552	100	330	stimuli/animals/dolphin/animal_dolphin06.jpg     	1	5	1	animal_dolphin06.jpg 	animals  	0	dolphin   	12	dolphin06   	125	alive    	1	moves	1	natural 	1	n	0	0        	 	0.0	0	177.852659199998	177.952650099993	0.0999908999947365
142702	100	331	stimuli/plant/cactus/plant_cactus10.jpg          	1	5	1	plant_cactus10.jpg   	plant    	6	cactus    	4	cactus10    	49	alive    	1	still	0	natural 	1	n	0	0        	 	0.0	0	178.002663299994	178.102655099996	0.0999918000015896
142852	100	332	stimuli/nonmovArt/bench/nma_bench02.jpg          	1	5	1	nma_bench02.jpg      	nonmovArt	4	bench     	1	bench02     	11	not_alive	0	still	0	artefact	0	n	0	0        	 	0.0	0	178.152687399997	178.252657000005	0.0999696000071708
143002	100	333	stimuli/animals2/lemur/animal_lemur07.jpg        	1	5	1	animal_lemur07.jpg   	animals2 	1	lemur     	23	lemur07     	236	alive    	1	moves	1	natural 	1	n	1	0        	 	0.0	0	178.302669600002	178.402669100004	0.0999995000020135
143152	100	334	stimuli/movArt/car/ma_car08.jpg                  	1	5	1	ma_car08.jpg         	movArt   	2	car       	5	car08       	57	not_alive	0	moves	1	artefact	0	n	0	0        	 	0.0	0	178.452674200002	178.552670100005	0.0999959000037052
143302	100	335	stimuli/movArt/train/ma_train03.jpg              	1	5	1	ma_train03.jpg       	movArt   	2	train     	34	train03     	342	not_alive	0	moves	1	artefact	0	n	0	1        	f	0.292129699984798	1	178.602677699993	178.702672599989	0.0999948999960907
143452	100	336	stimuli/nonmovNat/sand/nmn_sand04.jpg            	1	5	1	nmn_sand04.jpg       	nonmovNat	5	sand      	31	sand04      	313	not_alive	0	still	0	natural 	1	n	0	0        	 	0.0	0	178.752684599982	178.852676599985	0.0999920000031125
143602	100	337	stimuli/animals/dog/animal_dog10.jpg             	1	5	1	animal_dog10.jpg     	animals  	0	dog       	11	dog10       	119	alive    	1	moves	1	natural 	1	n	0	0        	 	0.0	0	178.902713899995	179.002678099991	0.0999641999951564
143752	100	338	stimuli/nonmovArt/lock/nma_lock05.jpg            	1	5	1	nma_lock05.jpg       	nonmovArt	4	lock      	24	lock05      	244	not_alive	0	still	0	artefact	0	n	0	0        	 	0.0	0	179.052689999982	179.152688700007	0.0999987000250258
143902	100	339	stimuli/animals/dolphin/animal_dolphin02.jpg     	1	5	1	animal_dolphin02.jpg 	animals  	0	dolphin   	12	dolphin02   	121	alive    	1	moves	1	natural 	1	n	0	0        	 	0.0	0	179.202694699983	179.302687499992	0.0999928000092041
144052	100	340	stimuli/nonmovNat/crystal/nmn_crystal09.jpg      	1	5	1	nmn_crystal09.jpg    	nonmovNat	5	crystal   	10	crystal09   	108	not_alive	0	still	0	natural 	1	n	0	0        	 	0.0	0	179.352698800009	179.452689700003	0.0999908999947365
144202	100	341	stimuli/plant/vine/plant_vine04.jpg              	1	5	1	plant_vine04.jpg     	plant    	6	vine      	36	vine04      	363	alive    	1	still	0	natural 	1	n	0	0        	 	0.0	0	179.502715699986	179.602694300003	0.0999786000174936
144352	100	342	stimuli/movNat/waves/mn_waves02.jpg              	1	5	1	mn_waves02.jpg       	movNat   	3	waves     	38	waves02     	381	not_alive	0	moves	1	natural 	1	n	0	0        	 	0.0	0	179.652694699995	179.752695700008	0.100001000013435
144502	100	343	stimuli/plant/grass/plant_grass09.jpg            	1	5	1	plant_grass09.jpg    	plant    	6	grass     	17	grass09     	178	alive    	1	still	0	natural 	1	n	0	0        	 	0.0	0	179.8027076	179.902713699994	0.100006099994062
144652	100	344	stimuli/movArt/car/ma_car05.jpg                  	1	5	1	ma_car05.jpg         	movArt   	2	car       	5	car05       	54	not_alive	0	moves	1	artefact	0	n	0	0        	 	0.0	0	179.952710399986	180.052706999995	0.0999966000090353
144802	100	345	stimuli/animals2/bee/animal_bee05.jpg            	1	5	1	animal_bee05.jpg     	animals2 	1	bee       	0	bee05       	4	alive    	1	moves	1	natural 	1	n	0	0        	 	0.0	0	180.102715899993	180.202709799982	0.0999938999884762
144952	100	346	stimuli/movArt/bus/ma_bus04.jpg                  	1	5	1	ma_bus04.jpg         	movArt   	2	bus       	3	bus04       	33	not_alive	0	moves	1	artefact	0	n	0	0        	 	0.0	0	180.252721600002	180.352712099993	0.0999904999916907
145102	100	347	stimuli/animals/cat/animal_cat10.jpg             	1	5	1	animal_cat10.jpg     	animals  	0	cat       	6	cat10       	69	alive    	1	moves	1	natural 	1	n	0	0        	 	0.0	0	180.402742899983	180.502716899995	0.0999740000115708
145252	100	348	stimuli/plant2/fern/plant_fern04.jpg             	1	5	1	plant_fern04.jpg     	plant2   	7	fern      	14	fern04      	143	alive    	1	still	0	natural 	1	n	0	0        	 	0.0	0	180.552730800002	180.652723100007	0.0999923000053968
145402	100	349	stimuli/nonmovArt/lock/nma_lock08.jpg            	1	5	1	nma_lock08.jpg       	nonmovArt	4	lock      	24	lock08      	247	not_alive	0	still	0	artefact	0	n	0	0        	 	0.0	0	180.702730199991	180.802723600005	0.0999934000137728
145552	100	350	stimuli/movArt/helicopter/ma_helicopter01.jpg    	1	5	1	ma_helicopter01.jpg  	movArt   	2	helicopter	19	helicopter01	190	not_alive	0	moves	1	artefact	0	n	0	0        	 	0.0	0	180.852735499997	180.952728300006	0.0999928000092041
145702	100	351	stimuli/plant/vine/plant_vine02.jpg              	1	5	1	plant_vine02.jpg     	plant    	6	vine      	36	vine02      	361	alive    	1	still	0	natural 	1	n	0	0        	 	0.0	0	181.002740099997	181.102731899999	0.0999918000015896
145852	100	352	stimuli/animals/eagle/animal_eagle02.jpg         	1	5	1	animal_eagle02.jpg   	animals  	0	eagle     	13	eagle02     	131	alive    	1	moves	1	natural 	1	n	0	0        	 	0.0	0	181.152741600003	181.252735999995	0.0999943999922834
146002	100	353	stimuli/movNat/hotspring/mn_hotspring10.jpg      	1	5	1	mn_hotspring10.jpg   	movNat   	3	hotspring 	21	hotspring10 	219	not_alive	0	moves	1	natural 	1	n	0	0        	 	0.0	0	181.302746600006	181.402740899997	0.099994299991522
146152	100	354	stimuli/nonmovNat/shell/nmn_shell02.jpg          	1	5	1	nmn_shell02.jpg      	nonmovNat	5	shell     	32	shell02     	321	not_alive	0	still	0	natural 	1	n	0	0        	 	0.0	0	181.452751799981	181.552744099987	0.0999923000053968
146302	100	355	stimuli/movArt/train/ma_train05.jpg              	1	5	1	ma_train05.jpg       	movArt   	2	train     	34	train05     	344	not_alive	0	moves	1	artefact	0	n	0	0        	 	0.0	0	181.602756599983	181.702746900002	0.0999903000192717
146452	100	356	stimuli/plant2/moss/plant_moss06.jpg             	1	5	1	plant_moss06.jpg     	plant2   	7	moss      	25	moss06      	255	alive    	1	still	0	natural 	1	n	0	0        	 	0.0	0	181.752769299987	181.852766900003	0.0999976000166498
146602	100	357	stimuli/animals/horse/animal_horse09.jpg         	1	5	1	animal_horse09.jpg   	animals  	0	horse     	20	horse09     	208	alive    	1	moves	1	natural 	1	n	0	0        	 	0.0	0	181.902760199999	182.002755399997	0.099995199998375
146752	100	358	stimuli/nonmovArt/mug/nma_mug04.jpg              	1	5	1	nma_mug04.jpg        	nonmovArt	4	mug       	26	mug04       	263	not_alive	0	still	0	artefact	0	n	0	0        	 	0.0	0	182.052765600005	182.152759399993	0.0999937999877147
146902	100	359	stimuli/plant/grass/plant_grass08.jpg            	1	5	1	plant_grass08.jpg    	plant    	6	grass     	17	grass08     	177	alive    	1	still	0	natural 	1	n	0	0        	 	0.0	0	182.202770300006	182.302761200001	0.0999908999947365
147052	100	360	stimuli/plant2/lemontree/plant_lemontree02.jpg   	1	5	1	plant_lemontree02.jpg	plant2   	7	lemontree 	22	lemontree02 	221	alive    	1	still	0	natural 	1	n	0	0        	 	0.0	0	182.352775100007	182.452766600007	0.0999914999993052
147202	100	361	stimuli/nonmovNat/shell/nmn_shell05.jpg          	1	5	1	nmn_shell05.jpg      	nonmovNat	5	shell     	32	shell05     	324	not_alive	0	still	0	natural 	1	n	0	0        	 	0.0	0	182.502778599999	182.602803999995	0.100025399995502
147352	100	362	stimuli/animals/horse/animal_horse02.jpg         	1	5	1	animal_horse02.jpg   	animals  	0	horse     	20	horse02     	201	alive    	1	moves	1	natural 	1	n	0	0        	 	0.0	0	182.652787400002	182.752778199996	0.0999907999939751
147502	100	363	stimuli/animals2/pigeon/animal_pigeon02.jpg      	1	5	1	animal_pigeon02.jpg  	animals2 	1	pigeon    	28	pigeon02    	281	alive    	1	moves	1	natural 	1	n	0	0        	 	0.0	0	182.802785000007	182.902779199998	0.0999941999907605
147652	100	364	stimuli/nonmovArt/lock/nma_lock06.jpg            	1	5	1	nma_lock06.jpg       	nonmovArt	4	lock      	24	lock06      	245	not_alive	0	still	0	artefact	0	n	0	0        	 	0.0	0	182.952791899996	183.052783799998	0.099991900002351
147802	100	365	stimuli/plant/vine/plant_vine06.jpg              	1	5	1	plant_vine06.jpg     	plant    	6	vine      	36	vine06      	365	alive    	1	still	0	natural 	1	n	0	0        	 	0.0	0	183.102792599995	183.202786499984	0.0999938999884762
147952	100	366	stimuli/movNat/waterfall/mn_waterfall10.jpg      	1	5	1	mn_waterfall10.jpg   	movNat   	3	waterfall 	37	waterfall10 	379	not_alive	0	moves	1	natural 	1	n	0	0        	 	0.0	0	183.252795699984	183.352817400009	0.100021700025536
148102	100	367	stimuli/nonmovArt/bench/nma_bench10.jpg          	1	5	1	nma_bench10.jpg      	nonmovArt	4	bench     	1	bench10     	19	not_alive	0	still	0	artefact	0	n	0	0        	 	0.0	0	183.402800899989	183.502792499989	0.0999916000000667
148252	100	368	stimuli/nonmovArt/headphones/nma_headphones05.jpg	1	5	1	nma_headphones05.jpg 	nonmovArt	4	headphones	18	headphones05	184	not_alive	0	still	0	artefact	0	n	0	0        	 	0.0	0	183.552804599982	183.652800799988	0.0999962000059895
148402	100	369	stimuli/animals/dolphin/animal_dolphin04.jpg     	1	5	1	animal_dolphin04.jpg 	animals  	0	dolphin   	12	dolphin04   	123	alive    	1	moves	1	natural 	1	n	0	0        	 	0.0	0	183.702859699988	183.802802599996	0.0999429000075906
148552	100	370	stimuli/movArt/bus/ma_bus05.jpg                  	1	5	1	ma_bus05.jpg         	movArt   	2	bus       	3	bus05       	34	not_alive	0	moves	1	artefact	0	n	0	0        	 	0.0	0	183.852812800003	183.952812100004	0.0999993000004906
148702	100	371	stimuli/animals2/whale/animal_whale01.jpg        	1	5	1	animal_whale01.jpg   	animals2 	1	whale     	39	whale01     	390	alive    	1	moves	1	natural 	1	n	0	0        	 	0.0	0	184.002817800007	184.102822399989	0.10000459998264
148852	100	372	stimuli/plant2/moss/plant_moss06.jpg             	1	5	1	plant_moss06.jpg     	plant2   	7	moss      	25	moss06      	255	alive    	1	still	0	natural 	1	n	0	0        	 	0.0	0	184.152822100004	184.252812599996	0.0999904999916907
149002	100	373	stimuli/nonmovArt/mug/nma_mug06.jpg              	1	5	1	nma_mug06.jpg        	nonmovArt	4	mug       	26	mug06       	265	not_alive	0	still	0	artefact	0	n	1	0        	 	0.0	0	184.302827000007	184.402819299983	0.099992299976293
149152	100	374	stimuli/animals/dog/animal_dog09.jpg             	1	5	1	animal_dog09.jpg     	animals  	0	dog       	11	dog09       	118	alive    	1	moves	1	natural 	1	n	0	0        	 	0.0	0	184.452855899988	184.552826400002	0.0999705000140239
149302	100	375	stimuli/animals/dolphin/animal_dolphin06.jpg     	1	5	1	animal_dolphin06.jpg 	animals  	0	dolphin   	12	dolphin06   	125	alive    	1	moves	1	natural 	1	n	0	1        	f	0.292126199987251	1	184.602833199984	184.702823200001	0.0999900000169873
149452	100	376	stimuli/animals2/bee/animal_bee05.jpg            	1	5	1	animal_bee05.jpg     	animals2 	1	bee       	0	bee05       	4	alive    	1	moves	1	natural 	1	n	0	0        	 	0.0	0	184.752837899985	184.852830899996	0.099993000010727
149602	100	377	stimuli/animals/horse/animal_horse05.jpg         	1	5	1	animal_horse05.jpg   	animals  	0	horse     	20	horse05     	204	alive    	1	moves	1	natural 	1	n	0	0        	 	0.0	0	184.902842499985	185.002832700004	0.0999902000185102
149752	100	378	stimuli/nonmovArt/lock/nma_lock07.jpg            	1	5	1	nma_lock07.jpg       	nonmovArt	4	lock      	24	lock07      	246	not_alive	0	still	0	artefact	0	n	1	0        	 	0.0	0	185.052857700008	185.152833500004	0.099975799996173
149902	100	379	stimuli/animals2/bee/animal_bee05.jpg            	1	5	1	animal_bee05.jpg     	animals2 	1	bee       	0	bee05       	4	alive    	1	moves	1	natural 	1	n	0	0        	 	0.0	0	185.202886399988	185.302844999998	0.0999586000107229
150052	100	380	stimuli/nonmovNat/sand/nmn_sand04.jpg            	1	5	1	nmn_sand04.jpg       	nonmovNat	5	sand      	31	sand04      	313	not_alive	0	still	0	natural 	1	n	0	1        	f	0.391999899991788	1	185.352853299992	185.452843999985	0.0999906999932136
150202	100	381	stimuli/movNat/waves/mn_waves03.jpg              	1	5	1	mn_waves03.jpg       	movNat   	3	waves     	38	waves03     	382	not_alive	0	moves	1	natural 	1	n	1	0        	 	0.0	0	185.502852699981	185.602845799993	0.0999931000114884
150352	100	382	stimuli/animals/eagle/animal_eagle10.jpg         	1	5	1	animal_eagle10.jpg   	animals  	0	eagle     	13	eagle10     	139	alive    	1	moves	1	natural 	1	n	0	0        	 	0.0	0	185.652859099995	185.752849799988	0.0999906999932136
150502	100	383	stimuli/plant/cactus/plant_cactus10.jpg          	1	5	1	plant_cactus10.jpg   	plant    	6	cactus    	4	cactus10    	49	alive    	1	still	0	natural 	1	n	0	0        	 	0.0	0	185.802866399987	185.902858899994	0.0999925000069197
150652	100	384	stimuli/nonmovNat/cliff/nmn_cliff07.jpg          	1	5	1	nmn_cliff07.jpg      	nonmovNat	5	cliff     	7	cliff07     	76	not_alive	0	still	0	natural 	1	n	0	0        	 	0.0	0	185.952879499993	186.052857800008	0.0999783000152092
150802	100	385	stimuli/animals/dog/animal_dog05.jpg             	1	5	1	animal_dog05.jpg     	animals  	0	dog       	11	dog05       	114	alive    	1	moves	1	natural 	1	n	0	0        	 	0.0	0	186.102874500008	186.202864099992	0.0999895999848377
150952	100	386	stimuli/nonmovArt/headphones/nma_headphones02.jpg	1	5	1	nma_headphones02.jpg 	nonmovArt	4	headphones	18	headphones02	181	not_alive	0	still	0	artefact	0	n	0	0        	 	0.0	0	186.252876399987	186.352871599986	0.099995199998375
151102	100	387	stimuli/movNat/river/mn_river03.jpg              	1	5	1	mn_river03.jpg       	movNat   	3	river     	29	river03     	292	not_alive	0	moves	1	natural 	1	n	0	0        	 	0.0	0	186.402878699999	186.502872399986	0.0999936999869533
151252	100	388	stimuli/plant/vine/plant_vine09.jpg              	1	5	1	plant_vine09.jpg     	plant    	6	vine      	36	vine09      	368	alive    	1	still	0	natural 	1	n	0	0        	 	0.0	0	186.552885299985	186.652876599983	0.0999912999977823
151402	100	389	stimuli/nonmovNat/sand/nmn_sand06.jpg            	1	5	1	nmn_sand06.jpg       	nonmovNat	5	sand      	31	sand06      	315	not_alive	0	still	0	natural 	1	n	0	0        	 	0.0	0	186.702886299987	186.802879800001	0.0999935000145342
151552	100	390	stimuli/animals/cat/animal_cat05.jpg             	1	5	1	animal_cat05.jpg     	animals  	0	cat       	6	cat05       	64	alive    	1	moves	1	natural 	1	n	0	0        	 	0.0	0	186.852889800008	186.952882999991	0.099993199983146
151702	100	391	stimuli/movArt/boat/ma_boat05.jpg                	1	5	1	ma_boat05.jpg        	movArt   	2	boat      	2	boat05      	24	not_alive	0	moves	1	artefact	0	n	0	0        	 	0.0	0	187.002892499993	187.102884899999	0.0999924000061583
151852	100	392	stimuli/plant/flower/plant_flower01.jpg          	1	5	1	plant_flower01.jpg   	plant    	6	flower    	16	flower01    	160	alive    	1	still	0	natural 	1	n	0	0        	 	0.0	0	187.152897599997	187.252889299998	0.0999917000008281
152002	100	393	stimuli/movArt/train/ma_train01.jpg              	1	5	1	ma_train01.jpg       	movArt   	2	train     	34	train01     	340	not_alive	0	moves	1	artefact	0	n	0	0        	 	0.0	0	187.302912599989	187.4029094	0.0999968000105582
152152	100	394	stimuli/movArt/boat/ma_boat09.jpg                	1	5	1	ma_boat09.jpg        	movArt   	2	boat      	2	boat09      	28	not_alive	0	moves	1	artefact	0	n	0	0        	 	0.0	0	187.452902799996	187.552899999981	0.0999971999845002
152302	100	395	stimuli/movArt/bus/ma_bus09.jpg                  	1	5	1	ma_bus09.jpg         	movArt   	2	bus       	3	bus09       	38	not_alive	0	moves	1	artefact	0	n	0	0        	 	0.0	0	187.602910599991	187.702903099998	0.0999925000069197
152452	100	396	stimuli/movArt/helicopter/ma_helicopter02.jpg    	1	5	1	ma_helicopter02.jpg  	movArt   	2	helicopter	19	helicopter02	191	not_alive	0	moves	1	artefact	0	n	0	0        	 	0.0	0	187.752911899996	187.852904300002	0.0999924000061583
152602	100	397	stimuli/nonmovArt/clothespeg/nma_clothespeg07.jpg	1	5	1	nma_clothespeg07.jpg 	nonmovArt	4	clothespeg	8	clothespeg07	86	not_alive	0	still	0	artefact	0	n	0	0        	 	0.0	0	187.902916599996	188.002907099988	0.0999904999916907
152752	100	398	stimuli/movArt/train/ma_train10.jpg              	1	5	1	ma_train10.jpg       	movArt   	2	train     	34	train10     	349	not_alive	0	moves	1	artefact	0	n	0	0        	 	0.0	0	188.052918900008	188.152937000006	0.100018099998124
152902	100	399	stimuli/plant2/palmtree/plant_palmtree02.jpg     	1	5	1	plant_palmtree02.jpg 	plant2   	7	palmtree  	27	palmtree02  	271	alive    	1	still	0	natural 	1	n	0	0        	 	0.0	0	188.202922800003	188.302915599983	0.0999927999801002
156669	100	400	stimuli/movArt/bus/ma_bus07.jpg                  	1	6	1	ma_bus07.jpg         	movArt   	2	bus       	3	bus07       	36	not_alive	0	moves	1	artefact	0	n	0	0        	 	0.0	0	191.969702999981	192.069686000003	0.0999830000218935
156819	100	401	stimuli/plant2/clover/plant_clover07.jpg         	1	6	1	plant_clover07.jpg   	plant2   	7	clover    	9	clover07    	96	alive    	1	still	0	natural 	1	n	0	0        	 	0.0	0	192.119694199995	192.219688299985	0.0999940999899991
156969	100	402	stimuli/plant2/moss/plant_moss04.jpg             	1	6	1	plant_moss04.jpg     	plant2   	7	moss      	25	moss04      	253	alive    	1	still	0	natural 	1	n	0	0        	 	0.0	0	192.269699199998	192.369706500001	0.100007300003199
157119	100	403	stimuli/plant/grass/plant_grass10.jpg            	1	6	1	plant_grass10.jpg    	plant    	6	grass     	17	grass10     	179	alive    	1	still	0	natural 	1	n	0	0        	 	0.0	0	192.419703399995	192.519723899983	0.100020499987295
157269	100	404	stimuli/plant/tree/plant_tree03.jpg              	1	6	1	plant_tree03.jpg     	plant    	6	tree      	35	tree03      	352	alive    	1	still	0	natural 	1	n	0	0        	 	0.0	0	192.569706399983	192.669699599996	0.0999932000122499
157419	100	405	stimuli/nonmovArt/mug/nma_mug02.jpg              	1	6	1	nma_mug02.jpg        	nonmovArt	4	mug       	26	mug02       	261	not_alive	0	still	0	artefact	0	n	0	0        	 	0.0	0	192.719710899983	192.81970339999	0.0999925000069197
157569	100	406	stimuli/plant/tree/plant_tree08.jpg              	1	6	1	plant_tree08.jpg     	plant    	6	tree      	35	tree08      	357	alive    	1	still	0	natural 	1	n	0	0        	 	0.0	0	192.869713399996	192.969707299984	0.0999938999884762
157719	100	407	stimuli/nonmovArt/headphones/nma_headphones04.jpg	1	6	1	nma_headphones04.jpg 	nonmovArt	4	headphones	18	headphones04	183	not_alive	0	still	0	artefact	0	n	0	0        	 	0.0	0	193.019716599985	193.119730400009	0.100013800023589
157869	100	408	stimuli/animals2/pigeon/animal_pigeon02.jpg      	1	6	1	animal_pigeon02.jpg  	animals2 	1	pigeon    	28	pigeon02    	281	alive    	1	moves	1	natural 	1	n	0	0        	 	0.0	0	193.169720200007	193.269729299995	0.100009099987801
158019	100	409	stimuli/animals2/lemur/animal_lemur05.jpg        	1	6	1	animal_lemur05.jpg   	animals2 	1	lemur     	23	lemur05     	234	alive    	1	moves	1	natural 	1	n	0	0        	 	0.0	0	193.319726699992	193.419716500008	0.0999898000154644
158169	100	410	stimuli/nonmovNat/cliff/nmn_cliff04.jpg          	1	6	1	nmn_cliff04.jpg      	nonmovNat	5	cliff     	7	cliff04     	73	not_alive	0	still	0	natural 	1	n	0	0        	 	0.0	0	193.469736600004	193.569721100008	0.0999845000042114
158319	100	411	stimuli/animals2/pigeon/animal_pigeon09.jpg      	1	6	1	animal_pigeon09.jpg  	animals2 	1	pigeon    	28	pigeon09    	288	alive    	1	moves	1	natural 	1	n	0	0        	 	0.0	0	193.619769399986	193.719731499994	0.0999621000082698
158469	100	412	stimuli/movArt/train/ma_train10.jpg              	1	6	1	ma_train10.jpg       	movArt   	2	train     	34	train10     	349	not_alive	0	moves	1	artefact	0	n	0	0        	 	0.0	0	193.769738500006	193.86974319999	0.100004699983401
158619	100	413	stimuli/animals/eagle/animal_eagle05.jpg         	1	6	1	animal_eagle05.jpg   	animals  	0	eagle     	13	eagle05     	134	alive    	1	moves	1	natural 	1	n	0	0        	 	0.0	0	193.919741199992	194.019736199989	0.0999949999968521
