onset	duration	eventnumber	stimulus_file	blockno	trialno	is_faststream	stim	stim_category	category_number	exemplar	exemplar_number	image_name	image_number	aliveness	aliveness_bin	movement	movement_bin	naturalness	naturalness_bin	response_hand_alive	istarget	response	keypressed	rt	correct	time_stimon	time_stimoff	stimdur
184690	100	0	stimuli/animals/dog/animal_dog10.jpg             	1	1	1	animal_dog10.jpg     	animals  	0	dog       	11	dog10       	119	alive    	1	moves	1	natural 	1	n	0	0        	 	0.0	0	119.862562699709	119.962540899869	0.099978200159967
184840	100	1	stimuli/movNat/river/mn_river01.jpg              	1	1	1	mn_river01.jpg       	movNat   	3	river     	29	river01     	290	not_alive	0	moves	1	natural 	1	n	0	0        	 	0.0	0	120.012558999937	120.11254879972	0.0999897997826338
184990	100	2	stimuli/animals/horse/animal_horse01.jpg         	1	1	1	animal_horse01.jpg   	animals  	0	horse     	20	horse01     	200	alive    	1	moves	1	natural 	1	n	0	0        	 	0.0	0	120.162539199926	120.262531399727	0.0999921998009086
185140	100	3	stimuli/plant2/fern/plant_fern01.jpg             	1	1	1	plant_fern01.jpg     	plant2   	7	fern      	14	fern01      	140	alive    	1	still	0	natural 	1	n	0	0        	 	0.0	0	120.312543599866	120.412555099931	0.100011500064284
185290	100	4	stimuli/nonmovNat/rock/nmn_rock10.jpg            	1	1	1	nmn_rock10.jpg       	nonmovNat	5	rock      	30	rock10      	309	not_alive	0	still	0	natural 	1	n	0	0        	 	0.0	0	120.462545499671	120.562554299831	0.10000880016014
185440	100	5	stimuli/plant2/clover/plant_clover02.jpg         	1	1	1	plant_clover02.jpg   	plant2   	7	clover    	9	clover02    	91	alive    	1	still	0	natural 	1	n	0	0        	 	0.0	0	120.612566199619	120.712542299647	0.0999761000275612
185590	100	6	stimuli/movNat/fire/mn_fire09.jpg                	1	1	1	mn_fire09.jpg        	movNat   	3	fire      	15	fire09      	158	not_alive	0	moves	1	natural 	1	n	0	0        	 	0.0	0	120.762568399776	120.862546099816	0.0999777000397444
185741	100	7	stimuli/animals2/whale/animal_whale09.jpg        	1	1	1	animal_whale09.jpg   	animals2 	1	whale     	39	whale09     	398	alive    	1	moves	1	natural 	1	n	0	0        	 	0.0	0	120.912792699877	121.012557299808	0.099764599930495
185890	100	8	stimuli/animals/cat/animal_cat05.jpg             	1	1	1	animal_cat05.jpg     	animals  	0	cat       	6	cat05       	64	alive    	1	moves	1	natural 	1	n	0	0        	 	0.0	0	121.06257809978	121.162555199582	0.099977099802345
186040	100	9	stimuli/plant2/clover/plant_clover03.jpg         	1	1	1	plant_clover03.jpg   	plant2   	7	clover    	9	clover03    	92	alive    	1	still	0	natural 	1	n	0	0        	 	0.0	0	121.212565199938	121.312559599988	0.0999944000504911
186190	100	10	stimuli/animals/dolphin/animal_dolphin03.jpg     	1	1	1	animal_dolphin03.jpg 	animals  	0	dolphin   	12	dolphin03   	122	alive    	1	moves	1	natural 	1	n	0	0        	 	0.0	0	121.36258509988	121.462561399676	0.0999762997962534
186340	100	11	stimuli/plant/cactus/plant_cactus03.jpg          	1	1	1	plant_cactus03.jpg   	plant    	6	cactus    	4	cactus03    	42	alive    	1	still	0	natural 	1	n	0	0        	 	0.0	0	121.512575399596	121.612583299633	0.100007900036871
186490	100	12	stimuli/movNat/fire/mn_fire07.jpg                	1	1	1	mn_fire07.jpg        	movNat   	3	fire      	15	fire07      	156	not_alive	0	moves	1	natural 	1	n	0	0        	 	0.0	0	121.662576699629	121.762580099981	0.100003400351852
186640	100	13	stimuli/plant2/fern/plant_fern05.jpg             	1	1	1	plant_fern05.jpg     	plant2   	7	fern      	14	fern05      	144	alive    	1	still	0	natural 	1	n	0	0        	 	0.0	0	121.812577100005	121.912569799926	0.0999926999211311
186790	100	14	stimuli/movNat/waves/mn_waves05.jpg              	1	1	1	mn_waves05.jpg       	movNat   	3	waves     	38	waves05     	384	not_alive	0	moves	1	natural 	1	n	0	0        	 	0.0	0	121.962600599974	122.06257459987	0.0999739998951554
186940	100	15	stimuli/animals2/bee/animal_bee03.jpg            	1	1	1	animal_bee03.jpg     	animals2 	1	bee       	0	bee03       	2	alive    	1	moves	1	natural 	1	n	0	0        	 	0.0	0	122.112605500035	122.212579299696	0.0999737996608019
187090	100	16	stimuli/movNat/waves/mn_waves04.jpg              	1	1	1	mn_waves04.jpg       	movNat   	3	waves     	38	waves04     	383	not_alive	0	moves	1	natural 	1	n	0	0        	 	0.0	0	122.262592199724	122.36258509988	0.0999929001554847
187240	100	17	stimuli/animals2/whale/animal_whale05.jpg        	1	1	1	animal_whale05.jpg   	animals2 	1	whale     	39	whale05     	394	alive    	1	moves	1	natural 	1	n	0	0        	 	0.0	0	122.41259389976	122.512599899899	0.100006000138819
187390	100	18	stimuli/animals2/tiger/animal_tiger09.jpg        	1	1	1	animal_tiger09.jpg   	animals2 	1	tiger     	33	tiger09     	338	alive    	1	moves	1	natural 	1	n	0	0        	 	0.0	0	122.562598399818	122.662616299931	0.100017900113016
187540	100	19	stimuli/movArt/helicopter/ma_helicopter03.jpg    	1	1	1	ma_helicopter03.jpg  	movArt   	2	helicopter	19	helicopter03	192	not_alive	0	moves	1	artefact	0	n	0	0        	 	0.0	0	122.712599999737	122.812593599781	0.0999936000443995
187690	100	20	stimuli/nonmovNat/crystal/nmn_crystal01.jpg      	1	1	1	nmn_crystal01.jpg    	nonmovNat	5	crystal   	10	crystal01   	100	not_alive	0	still	0	natural 	1	n	0	0        	 	0.0	0	122.862603900023	122.962598099839	0.0999941998161376
187840	100	21	stimuli/plant/cactus/plant_cactus09.jpg          	1	1	1	plant_cactus09.jpg   	plant    	6	cactus    	4	cactus09    	48	alive    	1	still	0	natural 	1	n	0	0        	 	0.0	0	123.012608299963	123.112617400009	0.100009100046009
187990	100	22	stimuli/animals2/pigeon/animal_pigeon09.jpg      	1	1	1	animal_pigeon09.jpg  	animals2 	1	pigeon    	28	pigeon09    	288	alive    	1	moves	1	natural 	1	n	0	0        	 	0.0	0	123.162631199695	123.262600099668	0.0999688999727368
188140	100	23	stimuli/animals/dog/animal_dog09.jpg             	1	1	1	animal_dog09.jpg     	animals  	0	dog       	11	dog09       	118	alive    	1	moves	1	natural 	1	n	1	0        	 	0.0	0	123.31265769992	123.412624299992	0.0999666000716388
188290	100	24	stimuli/animals2/bee/animal_bee09.jpg            	1	1	1	animal_bee09.jpg     	animals2 	1	bee       	0	bee09       	8	alive    	1	moves	1	natural 	1	n	0	0        	 	0.0	0	123.462620599661	123.562626499683	0.100005900021642
188440	100	25	stimuli/nonmovNat/rock/nmn_rock03.jpg            	1	1	1	nmn_rock03.jpg       	nonmovNat	5	rock      	30	rock03      	302	not_alive	0	still	0	natural 	1	n	0	1        	f	0.391914299689233	1	123.612623499706	123.712635899894	0.100012400187552
188590	100	26	stimuli/animals2/pigeon/animal_pigeon05.jpg      	1	1	1	animal_pigeon05.jpg  	animals2 	1	pigeon    	28	pigeon05    	284	alive    	1	moves	1	natural 	1	n	0	0        	 	0.0	0	123.762627099641	123.862621499691	0.0999944000504911
188740	100	27	stimuli/nonmovArt/bench/nma_bench07.jpg          	1	1	1	nma_bench07.jpg      	nonmovArt	4	bench     	1	bench07     	16	not_alive	0	still	0	artefact	0	n	0	0        	 	0.0	0	123.912646799814	124.012623399962	0.0999766001477838
188890	100	28	stimuli/nonmovArt/bench/nma_bench01.jpg          	1	1	1	nma_bench01.jpg      	nonmovArt	4	bench     	1	bench01     	10	not_alive	0	still	0	artefact	0	n	0	0        	 	0.0	0	124.062634499744	124.162644200027	0.100009700283408
189040	100	29	stimuli/nonmovNat/crystal/nmn_crystal09.jpg      	1	1	1	nmn_crystal09.jpg    	nonmovNat	5	crystal   	10	crystal09   	108	not_alive	0	still	0	natural 	1	n	0	0        	 	0.0	0	124.212636800017	124.312633099966	0.0999962999485433
189190	100	30	stimuli/animals/dolphin/animal_dolphin05.jpg     	1	1	1	animal_dolphin05.jpg 	animals  	0	dolphin   	12	dolphin05   	124	alive    	1	moves	1	natural 	1	n	0	0        	 	0.0	0	124.36264109984	124.462650499772	0.100009399931878
189340	100	31	stimuli/movNat/fire/mn_fire07.jpg                	1	1	1	mn_fire07.jpg        	movNat   	3	fire      	15	fire07      	156	not_alive	0	moves	1	natural 	1	n	0	0        	 	0.0	0	124.512660099659	124.612637999933	0.0999779002740979
189490	100	32	stimuli/movArt/helicopter/ma_helicopter09.jpg    	1	1	1	ma_helicopter09.jpg  	movArt   	2	helicopter	19	helicopter09	198	not_alive	0	moves	1	artefact	0	n	0	0        	 	0.0	0	124.662662699819	124.762660400011	0.0999977001920342
189640	100	33	stimuli/plant2/moss/plant_moss06.jpg             	1	1	1	plant_moss06.jpg     	plant2   	7	moss      	25	moss06      	255	alive    	1	still	0	natural 	1	n	0	0        	 	0.0	0	124.812651599757	124.91264460003	0.0999930002726614
189790	100	34	stimuli/plant/tree/plant_tree06.jpg              	1	1	1	plant_tree06.jpg     	plant    	6	tree      	35	tree06      	355	alive    	1	still	0	natural 	1	n	0	0        	 	0.0	0	124.962656199932	125.062659599818	0.100003399886191
189940	100	35	stimuli/nonmovArt/clothespeg/nma_clothespeg08.jpg	1	1	1	nma_clothespeg08.jpg 	nonmovArt	4	clothespeg	8	clothespeg08	87	not_alive	0	still	0	artefact	0	n	0	0        	 	0.0	0	125.112675599754	125.212666099891	0.0999905001372099
190090	100	36	stimuli/plant/tree/plant_tree09.jpg              	1	1	1	plant_tree09.jpg     	plant    	6	tree      	35	tree09      	358	alive    	1	still	0	natural 	1	n	0	0        	 	0.0	0	125.262660899665	125.362658699974	0.099997800309211
190240	100	37	stimuli/plant2/lemontree/plant_lemontree06.jpg   	1	1	1	plant_lemontree06.jpg	plant2   	7	lemontree 	22	lemontree06 	225	alive    	1	still	0	natural 	1	n	0	0        	 	0.0	0	125.412666599732	125.512658199761	0.0999916000291705
190390	100	38	stimuli/animals/cat/animal_cat02.jpg             	1	1	1	animal_cat02.jpg     	animals  	0	cat       	6	cat02       	61	alive    	1	moves	1	natural 	1	n	1	0        	 	0.0	0	125.562671700027	125.662663199939	0.0999914999119937
190540	100	39	stimuli/plant2/palmtree/plant_palmtree05.jpg     	1	1	1	plant_palmtree05.jpg 	plant2   	7	palmtree  	27	palmtree05  	274	alive    	1	still	0	natural 	1	n	0	0        	 	0.0	0	125.71265110001	125.812666499987	0.100015399977565
190690	100	40	stimuli/animals2/tiger/animal_tiger01.jpg        	1	1	1	animal_tiger01.jpg   	animals2 	1	tiger     	33	tiger01     	330	alive    	1	moves	1	natural 	1	n	0	1        	f	0.391961999703199	1	125.862693199888	125.96268419968	0.0999909997917712
190840	100	41	stimuli/nonmovNat/cliff/nmn_cliff10.jpg          	1	1	1	nmn_cliff10.jpg      	nonmovNat	5	cliff     	7	cliff10     	79	not_alive	0	still	0	natural 	1	n	0	0        	 	0.0	0	126.012696399819	126.112674599979	0.099978200159967
190990	100	42	stimuli/movArt/train/ma_train07.jpg              	1	1	1	ma_train07.jpg       	movArt   	2	train     	34	train07     	346	not_alive	0	moves	1	artefact	0	n	0	0        	 	0.0	0	126.162682499737	126.262693599798	0.100011100061238
191140	100	43	stimuli/movNat/hotspring/mn_hotspring05.jpg      	1	1	1	mn_hotspring05.jpg   	movNat   	3	hotspring 	21	hotspring05 	214	not_alive	0	moves	1	natural 	1	n	0	0        	 	0.0	0	126.312689799815	126.41268289974	0.0999930999241769
191290	100	44	stimuli/movArt/train/ma_train03.jpg              	1	1	1	ma_train03.jpg       	movArt   	2	train     	34	train03     	342	not_alive	0	moves	1	artefact	0	n	0	0        	 	0.0	0	126.462710799649	126.562684000004	0.0999732003547251
191440	100	45	stimuli/plant2/lemontree/plant_lemontree03.jpg   	1	1	1	plant_lemontree03.jpg	plant2   	7	lemontree 	22	lemontree03 	222	alive    	1	still	0	natural 	1	n	1	0        	 	0.0	0	126.612711299676	126.712688599713	0.0999773000366986
191590	100	46	stimuli/plant2/lemontree/plant_lemontree05.jpg   	1	1	1	plant_lemontree05.jpg	plant2   	7	lemontree 	22	lemontree05 	224	alive    	1	still	0	natural 	1	n	0	0        	 	0.0	0	126.762713899836	126.862736099865	0.100022200029343
191740	100	47	stimuli/movNat/hotspring/mn_hotspring03.jpg      	1	1	1	mn_hotspring03.jpg   	movNat   	3	hotspring 	21	hotspring03 	212	not_alive	0	moves	1	natural 	1	n	0	0        	 	0.0	0	126.912701999769	127.012695899699	0.0999938999302685
191890	100	48	stimuli/animals2/lemur/animal_lemur08.jpg        	1	1	1	animal_lemur08.jpg   	animals2 	1	lemur     	23	lemur08     	237	alive    	1	moves	1	natural 	1	n	0	1        	f	0.558411000296474	1	127.062720699701	127.162703099661	0.0999823999591172
192040	100	49	stimuli/animals2/pigeon/animal_pigeon03.jpg      	1	1	1	animal_pigeon03.jpg  	animals2 	1	pigeon    	28	pigeon03    	282	alive    	1	moves	1	natural 	1	n	0	0        	 	0.0	0	127.212711399887	127.312719699927	0.100008300039917
192190	100	50	stimuli/animals/eagle/animal_eagle03.jpg         	1	1	1	animal_eagle03.jpg   	animals  	0	eagle     	13	eagle03     	132	alive    	1	moves	1	natural 	1	n	0	0        	 	0.0	0	127.362713299692	127.462710399646	0.0999970999546349
192340	100	51	stimuli/animals/dog/animal_dog01.jpg             	1	1	1	animal_dog01.jpg     	animals  	0	dog       	11	dog01       	110	alive    	1	moves	1	natural 	1	n	0	0        	 	0.0	0	127.512734199874	127.612711399794	0.0999771999195218
192491	100	52	stimuli/movArt/train/ma_train07.jpg              	1	1	1	ma_train07.jpg       	movArt   	2	train     	34	train07     	346	not_alive	0	moves	1	artefact	0	n	0	0        	 	0.0	0	127.662739399821	127.762730099726	0.0999906999059022
192640	100	53	stimuli/nonmovNat/shell/nmn_shell01.jpg          	1	1	1	nmn_shell01.jpg      	nonmovNat	5	shell     	32	shell01     	320	not_alive	0	still	0	natural 	1	n	0	0        	 	0.0	0	127.81273279991	127.912723099813	0.0999902999028564
192790	100	54	stimuli/plant/flower/plant_flower06.jpg          	1	1	1	plant_flower06.jpg   	plant    	6	flower    	16	flower06    	165	alive    	1	still	0	natural 	1	n	0	0        	 	0.0	0	127.962719899602	128.062728899997	0.100009000394493
192941	100	55	stimuli/animals2/tiger/animal_tiger03.jpg        	1	1	1	animal_tiger03.jpg   	animals2 	1	tiger     	33	tiger03     	332	alive    	1	moves	1	natural 	1	n	0	0        	 	0.0	0	128.112730399705	128.212726399768	0.0999960000626743
193091	100	56	stimuli/plant/tree/plant_tree03.jpg              	1	1	1	plant_tree03.jpg     	plant    	6	tree      	35	tree03      	352	alive    	1	still	0	natural 	1	n	0	0        	 	0.0	0	128.262749799993	128.362727399915	0.0999775999225676
193241	100	57	stimuli/movArt/car/ma_car03.jpg                  	1	1	1	ma_car03.jpg         	movArt   	2	car       	5	car03       	52	not_alive	0	moves	1	artefact	0	n	0	0        	 	0.0	0	128.41273839958	128.512750199996	0.100011800415814
193391	100	58	stimuli/nonmovArt/mug/nma_mug05.jpg              	1	1	1	nma_mug05.jpg        	nonmovArt	4	mug       	26	mug05       	264	not_alive	0	still	0	artefact	0	n	0	0        	 	0.0	0	128.562744899653	128.662735499907	0.0999906002543867
193541	100	59	stimuli/animals2/lemur/animal_lemur08.jpg        	1	1	1	animal_lemur08.jpg   	animals2 	1	lemur     	23	lemur08     	237	alive    	1	moves	1	natural 	1	n	0	0        	 	0.0	0	128.712742699776	128.81273929961	0.0999965998344123
193691	100	60	stimuli/plant/grass/plant_grass05.jpg            	1	1	1	plant_grass05.jpg    	plant    	6	grass     	17	grass05     	174	alive    	1	still	0	natural 	1	n	0	0        	 	0.0	0	128.862765499856	128.96274139965	0.0999758997932076
193841	100	61	stimuli/nonmovNat/cliff/nmn_cliff01.jpg          	1	1	1	nmn_cliff01.jpg      	nonmovNat	5	cliff     	7	cliff01     	70	not_alive	0	still	0	natural 	1	n	0	0        	 	0.0	0	129.012753800023	129.112761899829	0.100008099805564
193991	100	62	stimuli/nonmovNat/sand/nmn_sand04.jpg            	1	1	1	nmn_sand04.jpg       	nonmovNat	5	sand      	31	sand04      	313	not_alive	0	still	0	natural 	1	n	0	0        	 	0.0	0	129.162757599726	129.26276679989	0.100009200163186
194141	100	63	stimuli/nonmovNat/rock/nmn_rock04.jpg            	1	1	1	nmn_rock04.jpg       	nonmovNat	5	rock      	30	rock04      	303	not_alive	0	still	0	natural 	1	n	0	0        	 	0.0	0	129.312759499997	129.412756499834	0.0999969998374581
194291	100	64	stimuli/movArt/bus/ma_bus04.jpg                  	1	1	1	ma_bus04.jpg         	movArt   	2	bus       	3	bus04       	33	not_alive	0	moves	1	artefact	0	n	0	0        	 	0.0	0	129.462770099752	129.562758599874	0.0999885001219809
194441	100	65	stimuli/animals2/bee/animal_bee06.jpg            	1	1	1	animal_bee06.jpg     	animals2 	1	bee       	0	bee06       	5	alive    	1	moves	1	natural 	1	n	0	0        	 	0.0	0	129.612768599764	129.712760699913	0.0999921001493931
194591	100	66	stimuli/nonmovArt/bench/nma_bench07.jpg          	1	1	1	nma_bench07.jpg      	nonmovArt	4	bench     	1	bench07     	16	not_alive	0	still	0	artefact	0	n	0	0        	 	0.0	0	129.762786699925	129.862768399995	0.0999817000702024
194741	100	67	stimuli/plant2/fern/plant_fern01.jpg             	1	1	1	plant_fern01.jpg     	plant2   	7	fern      	14	fern01      	140	alive    	1	still	0	natural 	1	n	0	0        	 	0.0	0	129.91277519986	130.012812299654	0.100037099793553
194891	100	68	stimuli/nonmovArt/headphones/nma_headphones08.jpg	1	1	1	nma_headphones08.jpg 	nonmovArt	4	headphones	18	headphones08	187	not_alive	0	still	0	artefact	0	n	0	0        	 	0.0	0	130.062798099592	130.162777199876	0.0999791002832353
195041	100	69	stimuli/animals/horse/animal_horse03.jpg         	1	1	1	animal_horse03.jpg   	animals  	0	horse     	20	horse03     	202	alive    	1	moves	1	natural 	1	n	0	0        	 	0.0	0	130.212805099785	130.312775400002	0.0999703002162278
195191	100	70	stimuli/nonmovArt/mug/nma_mug03.jpg              	1	1	1	nma_mug03.jpg        	nonmovArt	4	mug       	26	mug03       	262	not_alive	0	still	0	artefact	0	n	0	0        	 	0.0	0	130.36278609978	130.46278119972	0.0999950999394059
195341	100	71	stimuli/animals/eagle/animal_eagle06.jpg         	1	1	1	animal_eagle06.jpg   	animals  	0	eagle     	13	eagle06     	135	alive    	1	moves	1	natural 	1	n	0	0        	 	0.0	0	130.512805499602	130.61279699998	0.099991500377655
195491	100	72	stimuli/movNat/river/mn_river02.jpg              	1	1	1	mn_river02.jpg       	movNat   	3	river     	29	river02     	291	not_alive	0	moves	1	natural 	1	n	0	0        	 	0.0	0	130.662811799906	130.762803999707	0.0999921998009086
195641	100	73	stimuli/nonmovArt/lock/nma_lock04.jpg            	1	1	1	nma_lock04.jpg       	nonmovArt	4	lock      	24	lock04      	243	not_alive	0	still	0	artefact	0	n	0	0        	 	0.0	0	130.812796899583	130.912789799739	0.0999929001554847
195791	100	74	stimuli/nonmovNat/crystal/nmn_crystal04.jpg      	1	1	1	nmn_crystal04.jpg    	nonmovNat	5	crystal   	10	crystal04   	103	not_alive	0	still	0	natural 	1	n	0	0        	 	0.0	0	130.962815899868	131.06281089969	0.0999949998222292
195941	100	75	stimuli/nonmovNat/sand/nmn_sand06.jpg            	1	1	1	nmn_sand06.jpg       	nonmovNat	5	sand      	31	sand06      	315	not_alive	0	still	0	natural 	1	n	0	0        	 	0.0	0	131.112805399578	131.212796599604	0.0999912000261247
196091	100	76	stimuli/plant/grass/plant_grass04.jpg            	1	1	1	plant_grass04.jpg    	plant    	6	grass     	17	grass04     	173	alive    	1	still	0	natural 	1	n	0	0        	 	0.0	0	131.262807299849	131.362819699571	0.100012399721891
196241	100	77	stimuli/nonmovArt/clothespeg/nma_clothespeg09.jpg	1	1	1	nma_clothespeg09.jpg 	nonmovArt	4	clothespeg	8	clothespeg09	88	not_alive	0	still	0	artefact	0	n	0	0        	 	0.0	0	131.412811699789	131.512805899605	0.0999941998161376
196391	100	78	stimuli/nonmovArt/lock/nma_lock07.jpg            	1	1	1	nma_lock07.jpg       	nonmovArt	4	lock      	24	lock07      	246	not_alive	0	still	0	artefact	0	n	0	0        	 	0.0	0	131.562816399615	131.662809900008	0.099993500392884
196541	100	79	stimuli/movArt/boat/ma_boat09.jpg                	1	1	1	ma_boat09.jpg        	movArt   	2	boat      	2	boat09      	28	not_alive	0	moves	1	artefact	0	n	0	0        	 	0.0	0	131.712818400003	131.812812799588	0.0999943995848298
199457	100	80	stimuli/plant2/palmtree/plant_palmtree10.jpg     	1	2	1	plant_palmtree10.jpg 	plant2   	7	palmtree  	27	palmtree10  	279	alive    	1	still	0	natural 	1	n	0	0        	 	0.0	0	134.629580699839	134.729569599964	0.0999889001250267
199607	100	81	stimuli/movNat/river/mn_river05.jpg              	1	2	1	mn_river05.jpg       	movNat   	3	river     	29	river05     	294	not_alive	0	moves	1	natural 	1	n	0	0        	 	0.0	0	134.779566299636	134.879564699717	0.0999984000809491
199757	100	82	stimuli/plant/vine/plant_vine09.jpg              	1	2	1	plant_vine09.jpg     	plant    	6	vine      	36	vine09      	368	alive    	1	still	0	natural 	1	n	0	0        	 	0.0	0	134.929592099972	135.029563999735	0.0999718997627497
199907	100	83	stimuli/plant/cactus/plant_cactus03.jpg          	1	2	1	plant_cactus03.jpg   	plant    	6	cactus    	4	cactus03    	42	alive    	1	still	0	natural 	1	n	0	0        	 	0.0	0	135.079571499955	135.179564699996	0.0999932000413537
200057	100	84	stimuli/nonmovArt/headphones/nma_headphones04.jpg	1	2	1	nma_headphones04.jpg 	nonmovArt	4	headphones	18	headphones04	183	not_alive	0	still	0	artefact	0	n	0	0        	 	0.0	0	135.229579499923	135.329567999579	0.0999884996563196
200207	100	85	stimuli/nonmovArt/mug/nma_mug08.jpg              	1	2	1	nma_mug08.jpg        	nonmovArt	4	mug       	26	mug08       	267	not_alive	0	still	0	artefact	0	n	0	0        	 	0.0	0	135.379594799597	135.479572699871	0.0999779002740979
200357	100	86	stimuli/movNat/waterfall/mn_waterfall05.jpg      	1	2	1	mn_waterfall05.jpg   	movNat   	3	waterfall 	37	waterfall05 	374	not_alive	0	moves	1	natural 	1	n	0	0        	 	0.0	0	135.529582399875	135.629574999679	0.0999925998039544
200507	100	87	stimuli/movArt/car/ma_car09.jpg                  	1	2	1	ma_car09.jpg         	movArt   	2	car       	5	car09       	58	not_alive	0	moves	1	artefact	0	n	0	0        	 	0.0	0	135.679602599703	135.779577699956	0.0999751002527773
200657	100	88	stimuli/plant/vine/plant_vine09.jpg              	1	2	1	plant_vine09.jpg     	plant    	6	vine      	36	vine09      	368	alive    	1	still	0	natural 	1	n	0	0        	 	0.0	0	135.829605499748	135.929583199788	0.0999777000397444
200807	100	89	stimuli/plant2/moss/plant_moss01.jpg             	1	2	1	plant_moss01.jpg     	plant2   	7	moss      	25	moss01      	250	alive    	1	still	0	natural 	1	n	0	0        	 	0.0	0	135.979596199933	136.079602299724	0.100006099790335
200957	100	90	stimuli/plant/grass/plant_grass03.jpg            	1	2	1	plant_grass03.jpg    	plant    	6	grass     	17	grass03     	172	alive    	1	still	0	natural 	1	n	0	0        	 	0.0	0	136.129613799974	136.229613899719	0.100000099744648
201107	100	91	stimuli/movArt/car/ma_car04.jpg                  	1	2	1	ma_car04.jpg         	movArt   	2	car       	5	car04       	53	not_alive	0	moves	1	artefact	0	n	0	0        	 	0.0	0	136.279602199793	136.379607999697	0.100005799904466
201257	100	92	stimuli/nonmovArt/lock/nma_lock03.jpg            	1	2	1	nma_lock03.jpg       	nonmovArt	4	lock      	24	lock03      	242	not_alive	0	still	0	artefact	0	n	0	0        	 	0.0	0	136.429608999751	136.529597999994	0.0999890002422035
201407	100	93	stimuli/plant2/clover/plant_clover04.jpg         	1	2	1	plant_clover04.jpg   	plant2   	7	clover    	9	clover04    	93	alive    	1	still	0	natural 	1	n	0	0        	 	0.0	0	136.57960930001	136.67960169958	0.0999923995696008
201557	100	94	stimuli/plant2/palmtree/plant_palmtree04.jpg     	1	2	1	plant_palmtree04.jpg 	plant2   	7	palmtree  	27	palmtree04  	273	alive    	1	still	0	natural 	1	n	0	0        	 	0.0	0	136.729628299829	136.829619799741	0.0999914999119937
201707	100	95	stimuli/plant/flower/plant_flower02.jpg          	1	2	1	plant_flower02.jpg   	plant    	6	flower    	16	flower02    	161	alive    	1	still	0	natural 	1	n	0	0        	 	0.0	0	136.879615999758	136.979625099804	0.100009100046009
201857	100	96	stimuli/movArt/bus/ma_bus10.jpg                  	1	2	1	ma_bus10.jpg         	movArt   	2	bus       	3	bus10       	39	not_alive	0	moves	1	artefact	0	n	0	0        	 	0.0	0	137.029636899941	137.129611599725	0.0999746997840702
202007	100	97	stimuli/movArt/helicopter/ma_helicopter09.jpg    	1	2	1	ma_helicopter09.jpg  	movArt   	2	helicopter	19	helicopter09	198	not_alive	0	moves	1	artefact	0	n	0	0        	 	0.0	0	137.179624899756	137.279615799896	0.0999909001402557
202157	100	98	stimuli/plant2/moss/plant_moss05.jpg             	1	2	1	plant_moss05.jpg     	plant2   	7	moss      	25	moss05      	254	alive    	1	still	0	natural 	1	n	1	0        	 	0.0	0	137.329624800012	137.429635499604	0.100010699592531
202307	100	99	stimuli/plant/flower/plant_flower08.jpg          	1	2	1	plant_flower08.jpg   	plant    	6	flower    	16	flower08    	167	alive    	1	still	0	natural 	1	n	0	0        	 	0.0	0	137.479645299725	137.579623199999	0.0999779002740979
202457	100	100	stimuli/animals/horse/animal_horse07.jpg         	1	2	1	animal_horse07.jpg   	animals  	0	horse     	20	horse07     	206	alive    	1	moves	1	natural 	1	n	0	1        	f	0.406503099948168	1	137.6296257996	137.729635799769	0.100010000169277
202607	100	101	stimuli/movArt/bus/ma_bus02.jpg                  	1	2	1	ma_bus02.jpg         	movArt   	2	bus       	3	bus02       	31	not_alive	0	moves	1	artefact	0	n	0	0        	 	0.0	0	137.779639599845	137.879661799874	0.100022200029343
202757	100	102	stimuli/movArt/boat/ma_boat07.jpg                	1	2	1	ma_boat07.jpg        	movArt   	2	boat      	2	boat07      	26	not_alive	0	moves	1	artefact	0	n	0	0        	 	0.0	0	137.92964300001	138.029652599711	0.10000959970057
202907	100	103	stimuli/nonmovNat/sand/nmn_sand08.jpg            	1	2	1	nmn_sand08.jpg       	nonmovNat	5	sand      	31	sand08      	317	not_alive	0	still	0	natural 	1	n	0	0        	 	0.0	0	138.079659499694	138.17963849986	0.0999790001660585
203057	100	104	stimuli/animals/cat/animal_cat02.jpg             	1	2	1	animal_cat02.jpg     	animals  	0	cat       	6	cat02       	61	alive    	1	moves	1	natural 	1	n	0	0        	 	0.0	0	138.229660399724	138.329635099974	0.0999747002497315
203207	100	105	stimuli/nonmovNat/shell/nmn_shell08.jpg          	1	2	1	nmn_shell08.jpg      	nonmovNat	5	shell     	32	shell08     	327	not_alive	0	still	0	natural 	1	n	0	0        	 	0.0	0	138.379647899885	138.479655599687	0.100007699802518
203357	100	106	stimuli/movNat/hotspring/mn_hotspring02.jpg      	1	2	1	mn_hotspring02.jpg   	movNat   	3	hotspring 	21	hotspring02 	211	not_alive	0	moves	1	natural 	1	n	0	0        	 	0.0	0	138.529656299856	138.629652499687	0.0999961998313665
203507	100	107	stimuli/animals2/whale/animal_whale05.jpg        	1	2	1	animal_whale05.jpg   	animals2 	1	whale     	39	whale05     	394	alive    	1	moves	1	natural 	1	n	0	0        	 	0.0	0	138.679655499756	138.779658199754	0.100002699997276
203657	100	108	stimuli/plant/vine/plant_vine06.jpg              	1	2	1	plant_vine06.jpg     	plant    	6	vine      	36	vine06      	365	alive    	1	still	0	natural 	1	n	0	0        	 	0.0	0	138.829657199793	138.9296501996	0.0999929998070002
203807	100	109	stimuli/nonmovArt/clothespeg/nma_clothespeg04.jpg	1	2	1	nma_clothespeg04.jpg 	nonmovArt	4	clothespeg	8	clothespeg04	83	not_alive	0	still	0	artefact	0	n	0	0        	 	0.0	0	138.979653100017	139.079654499888	0.100001399870962
203957	100	110	stimuli/nonmovNat/cliff/nmn_cliff04.jpg          	1	2	1	nmn_cliff04.jpg      	nonmovNat	5	cliff     	7	cliff04     	73	not_alive	0	still	0	natural 	1	n	0	0        	 	0.0	0	139.129665299784	139.229663899634	0.0999985998496413
204107	100	111	stimuli/animals2/lemur/animal_lemur09.jpg        	1	2	1	animal_lemur09.jpg   	animals2 	1	lemur     	23	lemur09     	238	alive    	1	moves	1	natural 	1	n	0	0        	 	0.0	0	139.279685599729	139.379678199999	0.0999926002696156
204257	100	112	stimuli/animals/eagle/animal_eagle05.jpg         	1	2	1	animal_eagle05.jpg   	animals  	0	eagle     	13	eagle05     	134	alive    	1	moves	1	natural 	1	n	0	0        	 	0.0	0	139.42967209965	139.529665099923	0.0999930002726614
204407	100	113	stimuli/movNat/waterfall/mn_waterfall06.jpg      	1	2	1	mn_waterfall06.jpg   	movNat   	3	waterfall 	37	waterfall06 	375	not_alive	0	moves	1	natural 	1	n	0	0        	 	0.0	0	139.579688099679	139.679667399731	0.0999793000519276
204557	100	114	stimuli/nonmovNat/shell/nmn_shell05.jpg          	1	2	1	nmn_shell05.jpg      	nonmovNat	5	shell     	32	shell05     	324	not_alive	0	still	0	natural 	1	n	0	0        	 	0.0	0	139.7297119	139.829689499922	0.0999775999225676
204707	100	115	stimuli/animals/dolphin/animal_dolphin03.jpg     	1	2	1	animal_dolphin03.jpg 	animals  	0	dolphin   	12	dolphin03   	122	alive    	1	moves	1	natural 	1	n	0	0        	 	0.0	0	139.879717399832	139.979677299969	0.099959900137037
204857	100	116	stimuli/nonmovArt/headphones/nma_headphones05.jpg	1	2	1	nma_headphones05.jpg 	nonmovArt	4	headphones	18	headphones05	184	not_alive	0	still	0	artefact	0	n	0	0        	 	0.0	0	140.029687999748	140.129696799908	0.10000880016014
205007	100	117	stimuli/movNat/waves/mn_waves09.jpg              	1	2	1	mn_waves09.jpg       	movNat   	3	waves     	38	waves09     	388	not_alive	0	moves	1	natural 	1	n	0	0        	 	0.0	0	140.179707599804	140.279684299603	0.0999766997992992
205157	100	118	stimuli/movNat/waterfall/mn_waterfall09.jpg      	1	2	1	mn_waterfall09.jpg   	movNat   	3	waterfall 	37	waterfall09 	378	not_alive	0	moves	1	natural 	1	n	1	0        	 	0.0	0	140.32971279975	140.42970269965	0.0999898998998106
205307	100	119	stimuli/movArt/boat/ma_boat06.jpg                	1	2	1	ma_boat06.jpg        	movArt   	2	boat      	2	boat06      	25	not_alive	0	moves	1	artefact	0	n	0	0        	 	0.0	0	140.479721299838	140.579693299718	0.0999719998799264
205457	100	120	stimuli/movNat/river/mn_river03.jpg              	1	2	1	mn_river03.jpg       	movNat   	3	river     	29	river03     	292	not_alive	0	moves	1	natural 	1	n	0	1        	f	0.292065700050443	1	140.629703199957	140.729714099783	0.100010899826884
205607	100	121	stimuli/movNat/river/mn_river08.jpg              	1	2	1	mn_river08.jpg       	movNat   	3	river     	29	river08     	297	not_alive	0	moves	1	natural 	1	n	0	0        	 	0.0	0	140.779722099658	140.879715199582	0.0999930999241769
205757	100	122	stimuli/plant/flower/plant_flower01.jpg          	1	2	1	plant_flower01.jpg   	plant    	6	flower    	16	flower01    	160	alive    	1	still	0	natural 	1	n	0	0        	 	0.0	0	140.929707799572	141.029700999614	0.0999932000413537
205907	100	123	stimuli/nonmovArt/lock/nma_lock09.jpg            	1	2	1	nma_lock09.jpg       	nonmovArt	4	lock      	24	lock09      	248	not_alive	0	still	0	artefact	0	n	0	0        	 	0.0	0	141.079714599997	141.17970540002	0.0999908000230789
206058	100	124	stimuli/plant2/moss/plant_moss02.jpg             	1	2	1	plant_moss02.jpg     	plant2   	7	moss      	25	moss02      	251	alive    	1	still	0	natural 	1	n	0	0        	 	0.0	0	141.229741299991	141.329710299615	0.0999689996242523
206207	100	125	stimuli/movNat/hotspring/mn_hotspring08.jpg      	1	2	1	mn_hotspring08.jpg   	movNat   	3	hotspring 	21	hotspring08 	217	not_alive	0	moves	1	natural 	1	n	1	0        	 	0.0	0	141.379724099766	141.47971319966	0.099989099893719
206357	100	126	stimuli/movArt/train/ma_train06.jpg              	1	2	1	ma_train06.jpg       	movArt   	2	train     	34	train06     	345	not_alive	0	moves	1	artefact	0	n	0	0        	 	0.0	0	141.529724400025	141.629717699718	0.0999932996928692
206508	100	127	stimuli/nonmovArt/clothespeg/nma_clothespeg05.jpg	1	2	1	nma_clothespeg05.jpg 	nonmovArt	4	clothespeg	8	clothespeg05	84	not_alive	0	still	0	artefact	0	n	0	0        	 	0.0	0	141.679728499614	141.779740499798	0.100012000184506
206658	100	128	stimuli/plant/vine/plant_vine01.jpg              	1	2	1	plant_vine01.jpg     	plant    	6	vine      	36	vine01      	360	alive    	1	still	0	natural 	1	n	0	0        	 	0.0	0	141.829746999778	141.929733199999	0.0999862002208829
206808	100	129	stimuli/plant/cactus/plant_cactus06.jpg          	1	2	1	plant_cactus06.jpg   	plant    	6	cactus    	4	cactus06    	45	alive    	1	still	0	natural 	1	n	0	1        	f	0.592110199853778	1	141.979756199755	142.079742299858	0.0999861001037061
206958	100	130	stimuli/animals2/tiger/animal_tiger07.jpg        	1	2	1	animal_tiger07.jpg   	animals2 	1	tiger     	33	tiger07     	336	alive    	1	moves	1	natural 	1	n	0	0        	 	0.0	0	142.129738499876	142.22974999994	0.100011500064284
207108	100	131	stimuli/movArt/bus/ma_bus06.jpg                  	1	2	1	ma_bus06.jpg         	movArt   	2	bus       	3	bus06       	35	not_alive	0	moves	1	artefact	0	n	0	0        	 	0.0	0	142.279743699823	142.379734999966	0.0999913001433015
207258	100	132	stimuli/animals/dolphin/animal_dolphin04.jpg     	1	2	1	animal_dolphin04.jpg 	animals  	0	dolphin   	12	dolphin04   	123	alive    	1	moves	1	natural 	1	n	0	0        	 	0.0	0	142.429746099748	142.52975249989	0.100006400141865
207408	100	133	stimuli/nonmovArt/lock/nma_lock10.jpg            	1	2	1	nma_lock10.jpg       	nonmovArt	4	lock      	24	lock10      	249	not_alive	0	still	0	artefact	0	n	0	0        	 	0.0	0	142.579746299889	142.679744299967	0.0999980000779033
207558	100	134	stimuli/nonmovArt/headphones/nma_headphones09.jpg	1	2	1	nma_headphones09.jpg 	nonmovArt	4	headphones	18	headphones09	188	not_alive	0	still	0	artefact	0	n	0	0        	 	0.0	0	142.729772299994	142.829764799681	0.0999924996867776
207708	100	135	stimuli/movArt/car/ma_car07.jpg                  	1	2	1	ma_car07.jpg         	movArt   	2	car       	5	car07       	56	not_alive	0	moves	1	artefact	0	n	0	0        	 	0.0	0	142.8797764997	142.979764899705	0.0999884000048041
207858	100	136	stimuli/nonmovNat/crystal/nmn_crystal09.jpg      	1	2	1	nmn_crystal09.jpg    	nonmovNat	5	crystal   	10	crystal09   	108	not_alive	0	still	0	natural 	1	n	0	0        	 	0.0	0	143.029765299987	143.12976879999	0.100003500003368
208008	100	137	stimuli/nonmovArt/mug/nma_mug10.jpg              	1	2	1	nma_mug10.jpg        	nonmovArt	4	mug       	26	mug10       	269	not_alive	0	still	0	artefact	0	n	0	0        	 	0.0	0	143.179781399667	143.279755699914	0.0999743002466857
208158	100	138	stimuli/animals2/lemur/animal_lemur08.jpg        	1	2	1	animal_lemur08.jpg   	animals2 	1	lemur     	23	lemur08     	237	alive    	1	moves	1	natural 	1	n	0	0        	 	0.0	0	143.329765399918	143.429780100007	0.10001470008865
208308	100	139	stimuli/plant2/palmtree/plant_palmtree02.jpg     	1	2	1	plant_palmtree02.jpg 	plant2   	7	palmtree  	27	palmtree02  	271	alive    	1	still	0	natural 	1	n	0	0        	 	0.0	0	143.479778899811	143.579765299801	0.0999863999895752
208458	100	140	stimuli/animals/cat/animal_cat09.jpg             	1	2	1	animal_cat09.jpg     	animals  	0	cat       	6	cat09       	68	alive    	1	moves	1	natural 	1	n	0	0        	 	0.0	0	143.629788499791	143.729771299753	0.099982799962163
208608	100	141	stimuli/nonmovNat/sand/nmn_sand03.jpg            	1	2	1	nmn_sand03.jpg       	nonmovNat	5	sand      	31	sand03      	312	not_alive	0	still	0	natural 	1	n	0	0        	 	0.0	0	143.779791299719	143.879770400003	0.0999791002832353
208758	100	142	stimuli/animals2/pigeon/animal_pigeon01.jpg      	1	2	1	animal_pigeon01.jpg  	animals2 	1	pigeon    	28	pigeon01    	280	alive    	1	moves	1	natural 	1	n	0	0        	 	0.0	0	143.929796800017	144.029782400001	0.0999855999834836
208908	100	143	stimuli/animals2/tiger/animal_tiger01.jpg        	1	2	1	animal_tiger01.jpg   	animals2 	1	tiger     	33	tiger01     	330	alive    	1	moves	1	natural 	1	n	0	0        	 	0.0	0	144.079785099719	144.179807999637	0.100022899918258
209058	100	144	stimuli/plant/cactus/plant_cactus10.jpg          	1	2	1	plant_cactus10.jpg   	plant    	6	cactus    	4	cactus10    	49	alive    	1	still	0	natural 	1	n	0	0        	 	0.0	0	144.229806799907	144.329781599808	0.099974799901247
209208	100	145	stimuli/animals/dog/animal_dog05.jpg             	1	2	1	animal_dog05.jpg     	animals  	0	dog       	11	dog05       	114	alive    	1	moves	1	natural 	1	n	0	0        	 	0.0	0	144.379810199607	144.479786299635	0.0999761000275612
209358	100	146	stimuli/animals2/bee/animal_bee10.jpg            	1	2	1	animal_bee10.jpg     	animals2 	1	bee       	0	bee10       	9	alive    	1	moves	1	natural 	1	n	0	0        	 	0.0	0	144.529797299765	144.629790699575	0.099993399810046
209508	100	147	stimuli/movArt/helicopter/ma_helicopter02.jpg    	1	2	1	ma_helicopter02.jpg  	movArt   	2	helicopter	19	helicopter02	191	not_alive	0	moves	1	artefact	0	n	0	0        	 	0.0	0	144.679800899699	144.779797599651	0.0999966999515891
209658	100	148	stimuli/animals/cat/animal_cat08.jpg             	1	2	1	animal_cat08.jpg     	animals  	0	cat       	6	cat08       	67	alive    	1	moves	1	natural 	1	n	0	0        	 	0.0	0	144.829805399757	144.929808499757	0.100003100000322
209808	100	149	stimuli/plant2/clover/plant_clover07.jpg         	1	2	1	plant_clover07.jpg   	plant2   	7	clover    	9	clover07    	96	alive    	1	still	0	natural 	1	n	0	0        	 	0.0	0	144.979808999691	145.079800199717	0.0999912000261247
209958	100	150	stimuli/movArt/train/ma_train01.jpg              	1	2	1	ma_train01.jpg       	movArt   	2	train     	34	train01     	340	not_alive	0	moves	1	artefact	0	n	0	0        	 	0.0	0	145.129812199622	145.229823399801	0.100011200178415
210108	100	151	stimuli/movNat/waves/mn_waves10.jpg              	1	2	1	mn_waves10.jpg       	movNat   	3	waves     	38	waves10     	389	not_alive	0	moves	1	natural 	1	n	0	0        	 	0.0	0	145.279834199697	145.379823999945	0.0999898002482951
210258	100	152	stimuli/animals/horse/animal_horse05.jpg         	1	2	1	animal_horse05.jpg   	animals  	0	horse     	20	horse05     	204	alive    	1	moves	1	natural 	1	n	0	0        	 	0.0	0	145.42983249994	145.529812099878	0.0999795999377966
210408	100	153	stimuli/movNat/waterfall/mn_waterfall07.jpg      	1	2	1	mn_waterfall07.jpg   	movNat   	3	waterfall 	37	waterfall07 	376	not_alive	0	moves	1	natural 	1	n	0	0        	 	0.0	0	145.579836599994	145.679829899687	0.0999932996928692
210558	100	154	stimuli/animals/dog/animal_dog07.jpg             	1	2	1	animal_dog07.jpg     	animals  	0	dog       	11	dog07       	116	alive    	1	moves	1	natural 	1	n	0	0        	 	0.0	0	145.729825399816	145.829818299972	0.0999929001554847
210708	100	155	stimuli/plant2/lemontree/plant_lemontree05.jpg   	1	2	1	plant_lemontree05.jpg	plant2   	7	lemontree 	22	lemontree05 	224	alive    	1	still	0	natural 	1	n	0	0        	 	0.0	0	145.879836499691	145.979836499784	0.100000000093132
210858	100	156	stimuli/movNat/river/mn_river01.jpg              	1	2	1	mn_river01.jpg       	movNat   	3	river     	29	river01     	290	not_alive	0	moves	1	natural 	1	n	0	0        	 	0.0	0	146.029853999615	146.129842099734	0.0999881001189351
211008	100	157	stimuli/animals/eagle/animal_eagle07.jpg         	1	2	1	animal_eagle07.jpg   	animals  	0	eagle     	13	eagle07     	136	alive    	1	moves	1	natural 	1	n	0	0        	 	0.0	0	146.179836999625	146.279827099759	0.0999901001341641
211158	100	158	stimuli/plant/grass/plant_grass08.jpg            	1	2	1	plant_grass08.jpg    	plant    	6	grass     	17	grass08     	177	alive    	1	still	0	natural 	1	n	0	0        	 	0.0	0	146.329841699917	146.429833999835	0.0999922999180853
211308	100	159	stimuli/movNat/waterfall/mn_waterfall03.jpg      	1	2	1	mn_waterfall03.jpg   	movNat   	3	waterfall 	37	waterfall03 	372	not_alive	0	moves	1	natural 	1	n	0	0        	 	0.0	0	146.479842899833	146.579839400016	0.0999965001828968
215258	100	160	stimuli/nonmovNat/shell/nmn_shell05.jpg          	1	3	1	nmn_shell05.jpg      	nonmovNat	5	shell     	32	shell05     	324	not_alive	0	still	0	natural 	1	n	0	0        	 	0.0	0	150.429956899956	150.529936699662	0.0999797997064888
215408	100	161	stimuli/nonmovArt/headphones/nma_headphones02.jpg	1	3	1	nma_headphones02.jpg 	nonmovArt	4	headphones	18	headphones02	181	not_alive	0	still	0	artefact	0	n	0	0        	 	0.0	0	150.579958799761	150.679936099797	0.0999773000366986
215558	100	162	stimuli/nonmovArt/mug/nma_mug04.jpg              	1	3	1	nma_mug04.jpg        	nonmovArt	4	mug       	26	mug04       	263	not_alive	0	still	0	artefact	0	n	0	0        	 	0.0	0	150.729947799817	150.829940999858	0.0999932000413537
215708	100	163	stimuli/animals/horse/animal_horse10.jpg         	1	3	1	animal_horse10.jpg   	animals  	0	horse     	20	horse10     	209	alive    	1	moves	1	natural 	1	n	0	0        	 	0.0	0	150.87996749999	150.979945099913	0.0999775999225676
215858	100	164	stimuli/plant2/fern/plant_fern02.jpg             	1	3	1	plant_fern02.jpg     	plant2   	7	fern      	14	fern02      	141	alive    	1	still	0	natural 	1	n	0	0        	 	0.0	0	151.029969600029	151.129947499838	0.0999778998084366
216008	100	165	stimuli/animals/cat/animal_cat03.jpg             	1	3	1	animal_cat03.jpg     	animals  	0	cat       	6	cat03       	62	alive    	1	moves	1	natural 	1	n	0	0        	 	0.0	0	151.179958799854	151.279956099577	0.0999972997233272
216158	100	166	stimuli/nonmovNat/rock/nmn_rock05.jpg            	1	3	1	nmn_rock05.jpg       	nonmovNat	5	rock      	30	rock05      	304	not_alive	0	still	0	natural 	1	n	0	0        	 	0.0	0	151.329965799581	151.429952899925	0.0999871003441513
216308	100	167	stimuli/movNat/waves/mn_waves02.jpg              	1	3	1	mn_waves02.jpg       	movNat   	3	waves     	38	waves02     	381	not_alive	0	moves	1	natural 	1	n	0	0        	 	0.0	0	151.479964899831	151.579962299671	0.0999973998405039
216458	100	168	stimuli/plant/flower/plant_flower01.jpg          	1	3	1	plant_flower01.jpg   	plant    	6	flower    	16	flower01    	160	alive    	1	still	0	natural 	1	n	0	0        	 	0.0	0	151.629967099987	151.729962799698	0.099995699711144
216608	100	169	stimuli/movArt/boat/ma_boat04.jpg                	1	3	1	ma_boat04.jpg        	movArt   	2	boat      	2	boat04      	23	not_alive	0	moves	1	artefact	0	n	0	0        	 	0.0	0	151.779986899812	151.87998319976	0.0999962999485433
216758	100	170	stimuli/plant/grass/plant_grass10.jpg            	1	3	1	plant_grass10.jpg    	plant    	6	grass     	17	grass10     	179	alive    	1	still	0	natural 	1	n	0	0        	 	0.0	0	151.929974299856	152.029968599789	0.0999942999333143
216908	100	171	stimuli/nonmovArt/clothespeg/nma_clothespeg01.jpg	1	3	1	nma_clothespeg01.jpg 	nonmovArt	4	clothespeg	8	clothespeg01	80	not_alive	0	still	0	artefact	0	n	0	0        	 	0.0	0	152.079979300033	152.17997529963	0.099995999597013
217058	100	172	stimuli/movNat/hotspring/mn_hotspring09.jpg      	1	3	1	mn_hotspring09.jpg   	movNat   	3	hotspring 	21	hotspring09 	218	not_alive	0	moves	1	natural 	1	n	0	0        	 	0.0	0	152.229990199674	152.32997619966	0.0999859999865294
217208	100	173	stimuli/movArt/car/ma_car07.jpg                  	1	3	1	ma_car07.jpg         	movArt   	2	car       	5	car07       	56	not_alive	0	moves	1	artefact	0	n	0	0        	 	0.0	0	152.379986200016	152.479992799927	0.100006599910557
217358	100	174	stimuli/plant2/lemontree/plant_lemontree07.jpg   	1	3	1	plant_lemontree07.jpg	plant2   	7	lemontree 	22	lemontree07 	226	alive    	1	still	0	natural 	1	n	1	0        	 	0.0	0	152.52998879971	152.629996499978	0.100007700268179
217508	100	175	stimuli/nonmovArt/bench/nma_bench09.jpg          	1	3	1	nma_bench09.jpg      	nonmovArt	4	bench     	1	bench09     	18	not_alive	0	still	0	artefact	0	n	0	0        	 	0.0	0	152.680009899661	152.780003899708	0.0999940000474453
217658	100	176	stimuli/plant/vine/plant_vine04.jpg              	1	3	1	plant_vine04.jpg     	plant    	6	vine      	36	vine04      	363	alive    	1	still	0	natural 	1	n	0	0        	 	0.0	0	152.829996799584	152.929994300008	0.099997500423342
217808	100	177	stimuli/nonmovNat/sand/nmn_sand05.jpg            	1	3	1	nmn_sand05.jpg       	nonmovNat	5	sand      	31	sand05      	314	not_alive	0	still	0	natural 	1	n	0	1        	f	0.451066300272942	1	152.980002099648	153.079993699677	0.0999916000291705
217958	100	178	stimuli/animals2/lemur/animal_lemur04.jpg        	1	3	1	animal_lemur04.jpg   	animals2 	1	lemur     	23	lemur04     	233	alive    	1	moves	1	natural 	1	n	0	0        	 	0.0	0	153.130005299579	153.230002499651	0.0999972000718117
218108	100	179	stimuli/plant/cactus/plant_cactus01.jpg          	1	3	1	plant_cactus01.jpg   	plant    	6	cactus    	4	cactus01    	40	alive    	1	still	0	natural 	1	n	0	0        	 	0.0	0	153.280025199987	153.380031299777	0.100006099790335
218258	100	180	stimuli/nonmovNat/rock/nmn_rock09.jpg            	1	3	1	nmn_rock09.jpg       	nonmovNat	5	rock      	30	rock09      	308	not_alive	0	still	0	natural 	1	n	0	0        	 	0.0	0	153.430035699625	153.530008299742	0.0999726001173258
218408	100	181	stimuli/movNat/fire/mn_fire02.jpg                	1	3	1	mn_fire02.jpg        	movNat   	3	fire      	15	fire02      	151	not_alive	0	moves	1	natural 	1	n	0	0        	 	0.0	0	153.580016299617	153.680028299801	0.100012000184506
218558	100	182	stimuli/nonmovArt/headphones/nma_headphones06.jpg	1	3	1	nma_headphones06.jpg 	nonmovArt	4	headphones	18	headphones06	185	not_alive	0	still	0	artefact	0	n	0	0        	 	0.0	0	153.730021399911	153.830028199591	0.10000679967925
218708	100	183	stimuli/animals2/tiger/animal_tiger05.jpg        	1	3	1	animal_tiger05.jpg   	animals2 	1	tiger     	33	tiger05     	334	alive    	1	moves	1	natural 	1	n	0	0        	 	0.0	0	153.88002719963	153.980017399881	0.0999902002513409
218858	100	184	stimuli/nonmovArt/lock/nma_lock10.jpg            	1	3	1	nma_lock10.jpg       	nonmovArt	4	lock      	24	lock10      	249	not_alive	0	still	0	artefact	0	n	0	0        	 	0.0	0	154.030040699989	154.130024899729	0.0999841997399926
219008	100	185	stimuli/animals/dolphin/animal_dolphin10.jpg     	1	3	1	animal_dolphin10.jpg 	animals  	0	dolphin   	12	dolphin10   	129	alive    	1	moves	1	natural 	1	n	0	0        	 	0.0	0	154.180029799696	154.280022799969	0.0999930002726614
219158	100	186	stimuli/nonmovNat/crystal/nmn_crystal01.jpg      	1	3	1	nmn_crystal01.jpg    	nonmovNat	5	crystal   	10	crystal01   	100	not_alive	0	still	0	natural 	1	n	0	0        	 	0.0	0	154.330053299665	154.430046799593	0.0999934999272227
219308	100	187	stimuli/movArt/car/ma_car09.jpg                  	1	3	1	ma_car09.jpg         	movArt   	2	car       	5	car09       	58	not_alive	0	moves	1	artefact	0	n	0	0        	 	0.0	0	154.48005389981	154.580045699608	0.0999917997978628
219458	100	188	stimuli/plant/tree/plant_tree02.jpg              	1	3	1	plant_tree02.jpg     	plant    	6	tree      	35	tree02      	351	alive    	1	still	0	natural 	1	n	0	0        	 	0.0	0	154.630039399955	154.730034099892	0.0999946999363601
219608	100	189	stimuli/plant/tree/plant_tree08.jpg              	1	3	1	plant_tree08.jpg     	plant    	6	tree      	35	tree08      	357	alive    	1	still	0	natural 	1	n	0	0        	 	0.0	0	154.780044300016	154.880052999593	0.100008699577302
219758	100	190	stimuli/nonmovNat/shell/nmn_shell04.jpg          	1	3	1	nmn_shell04.jpg      	nonmovNat	5	shell     	32	shell04     	323	not_alive	0	still	0	natural 	1	n	0	0        	 	0.0	0	154.930063599721	155.03004599968	0.0999823999591172
219908	100	191	stimuli/nonmovNat/sand/nmn_sand03.jpg            	1	3	1	nmn_sand03.jpg       	nonmovNat	5	sand      	31	sand03      	312	not_alive	0	still	0	natural 	1	n	0	0        	 	0.0	0	155.080073499586	155.180044399574	0.0999708999879658
220058	100	192	stimuli/plant2/fern/plant_fern03.jpg             	1	3	1	plant_fern03.jpg     	plant2   	7	fern      	14	fern03      	142	alive    	1	still	0	natural 	1	n	0	0        	 	0.0	0	155.2300700997	155.330048099626	0.0999779999256134
220208	100	193	stimuli/plant2/fern/plant_fern07.jpg             	1	3	1	plant_fern07.jpg     	plant2   	7	fern      	14	fern07      	146	alive    	1	still	0	natural 	1	n	0	0        	 	0.0	0	155.380060299765	155.480066899676	0.100006599910557
220358	100	194	stimuli/movArt/helicopter/ma_helicopter02.jpg    	1	3	1	ma_helicopter02.jpg  	movArt   	2	helicopter	19	helicopter02	191	not_alive	0	moves	1	artefact	0	n	0	0        	 	0.0	0	155.530081999954	155.630073599983	0.0999916000291705
220508	100	195	stimuli/animals2/lemur/animal_lemur04.jpg        	1	3	1	animal_lemur04.jpg   	animals2 	1	lemur     	23	lemur04     	233	alive    	1	moves	1	natural 	1	n	0	0        	 	0.0	0	155.680084799882	155.780073799659	0.0999889997765422
220658	100	196	stimuli/plant2/clover/plant_clover06.jpg         	1	3	1	plant_clover06.jpg   	plant2   	7	clover    	9	clover06    	95	alive    	1	still	0	natural 	1	n	0	0        	 	0.0	0	155.830069500022	155.930079799611	0.100010299589485
220808	100	197	stimuli/animals/eagle/animal_eagle03.jpg         	1	3	1	animal_eagle03.jpg   	animals  	0	eagle     	13	eagle03     	132	alive    	1	moves	1	natural 	1	n	0	0        	 	0.0	0	155.980074099731	156.080083400011	0.100009300280362
220958	100	198	stimuli/nonmovArt/bench/nma_bench04.jpg          	1	3	1	nma_bench04.jpg      	nonmovArt	4	bench     	1	bench04     	13	not_alive	0	still	0	artefact	0	n	0	0        	 	0.0	0	156.13007619977	156.230089499615	0.100013299845159
221108	100	199	stimuli/plant2/lemontree/plant_lemontree04.jpg   	1	3	1	plant_lemontree04.jpg	plant2   	7	lemontree 	22	lemontree04 	223	alive    	1	still	0	natural 	1	n	0	0        	 	0.0	0	156.280095999595	156.380073899869	0.0999779002740979
221258	100	200	stimuli/movArt/bus/ma_bus05.jpg                  	1	3	1	ma_bus05.jpg         	movArt   	2	bus       	3	bus05       	34	not_alive	0	moves	1	artefact	0	n	0	0        	 	0.0	0	156.430084099993	156.53007759992	0.0999934999272227
221408	100	201	stimuli/nonmovNat/shell/nmn_shell08.jpg          	1	3	1	nmn_shell08.jpg      	nonmovNat	5	shell     	32	shell08     	327	not_alive	0	still	0	natural 	1	n	0	0        	 	0.0	0	156.580087999813	156.68008619966	0.0999981998465955
221558	100	202	stimuli/plant/flower/plant_flower08.jpg          	1	3	1	plant_flower08.jpg   	plant    	6	flower    	16	flower08    	167	alive    	1	still	0	natural 	1	n	0	0        	 	0.0	0	156.730107499752	156.830101300031	0.099993800278753
221708	100	203	stimuli/nonmovNat/cliff/nmn_cliff01.jpg          	1	3	1	nmn_cliff01.jpg      	nonmovNat	5	cliff     	7	cliff01     	70	not_alive	0	still	0	natural 	1	n	0	0        	 	0.0	0	156.880095500033	156.980089599732	0.0999940996989608
221858	100	204	stimuli/animals/eagle/animal_eagle10.jpg         	1	3	1	animal_eagle10.jpg   	animals  	0	eagle     	13	eagle10     	139	alive    	1	moves	1	natural 	1	n	0	0        	 	0.0	0	157.03009849973	157.130093100015	0.0999946002848446
222008	100	205	stimuli/animals2/pigeon/animal_pigeon06.jpg      	1	3	1	animal_pigeon06.jpg  	animals2 	1	pigeon    	28	pigeon06    	285	alive    	1	moves	1	natural 	1	n	0	0        	 	0.0	0	157.180102299899	157.280133899767	0.100031599868089
222158	100	206	stimuli/animals2/whale/animal_whale03.jpg        	1	3	1	animal_whale03.jpg   	animals2 	1	whale     	39	whale03     	392	alive    	1	moves	1	natural 	1	n	0	0        	 	0.0	0	157.330106499605	157.430099999998	0.099993500392884
222308	100	207	stimuli/animals2/bee/animal_bee07.jpg            	1	3	1	animal_bee07.jpg     	animals2 	1	bee       	0	bee07       	6	alive    	1	moves	1	natural 	1	n	1	0        	 	0.0	0	157.480113399681	157.580102399923	0.0999890002422035
222458	100	208	stimuli/plant2/palmtree/plant_palmtree07.jpg     	1	3	1	plant_palmtree07.jpg 	plant2   	7	palmtree  	27	palmtree07  	276	alive    	1	still	0	natural 	1	n	0	0        	 	0.0	0	157.6301281997	157.730123399757	0.0999952000565827
222608	100	209	stimuli/plant2/palmtree/plant_palmtree07.jpg     	1	3	1	plant_palmtree07.jpg 	plant2   	7	palmtree  	27	palmtree07  	276	alive    	1	still	0	natural 	1	n	0	1        	f	0.306013100314885	1	157.780137700029	157.880112699699	0.0999749996699393
222758	100	210	stimuli/movNat/waterfall/mn_waterfall08.jpg      	1	3	1	mn_waterfall08.jpg   	movNat   	3	waterfall 	37	waterfall08 	377	not_alive	0	moves	1	natural 	1	n	0	0        	 	0.0	0	157.930142899975	158.030130399857	0.0999874998815358
222908	100	211	stimuli/movNat/waves/mn_waves02.jpg              	1	3	1	mn_waves02.jpg       	movNat   	3	waves     	38	waves02     	381	not_alive	0	moves	1	natural 	1	n	0	0        	 	0.0	0	158.080129599664	158.180143799633	0.100014199968427
223058	100	212	stimuli/movArt/train/ma_train04.jpg              	1	3	1	ma_train04.jpg       	movArt   	2	train     	34	train04     	343	not_alive	0	moves	1	artefact	0	n	0	0        	 	0.0	0	158.23012729967	158.330119999591	0.0999926999211311
223208	100	213	stimuli/movNat/fire/mn_fire08.jpg                	1	3	1	mn_fire08.jpg        	movNat   	3	fire      	15	fire08      	157	not_alive	0	moves	1	natural 	1	n	0	0        	 	0.0	0	158.380146199837	158.480125600006	0.0999794001691043
223358	100	214	stimuli/movNat/fire/mn_fire04.jpg                	1	3	1	mn_fire04.jpg        	movNat   	3	fire      	15	fire04      	153	not_alive	0	moves	1	natural 	1	n	0	0        	 	0.0	0	158.530135999899	158.630129399709	0.099993399810046
223508	100	215	stimuli/nonmovNat/crystal/nmn_crystal05.jpg      	1	3	1	nmn_crystal05.jpg    	nonmovNat	5	crystal   	10	crystal05   	104	not_alive	0	still	0	natural 	1	n	0	0        	 	0.0	0	158.680138499942	158.780134900007	0.0999964000657201
223658	100	216	stimuli/animals2/bee/animal_bee01.jpg            	1	3	1	animal_bee01.jpg     	animals2 	1	bee       	0	bee01       	0	alive    	1	moves	1	natural 	1	n	1	0        	 	0.0	0	158.830161399674	158.930136199575	0.099974799901247
223808	100	217	stimuli/plant/vine/plant_vine02.jpg              	1	3	1	plant_vine02.jpg     	plant    	6	vine      	36	vine02      	361	alive    	1	still	0	natural 	1	n	0	0        	 	0.0	0	158.980160599574	159.080156699754	0.0999961001798511
223958	100	218	stimuli/plant/grass/plant_grass02.jpg            	1	3	1	plant_grass02.jpg    	plant    	6	grass     	17	grass02     	171	alive    	1	still	0	natural 	1	n	0	1        	f	0.391981000080705	1	159.130153900012	159.230159199797	0.100005299784243
224108	100	219	stimuli/animals/dog/animal_dog05.jpg             	1	3	1	animal_dog05.jpg     	animals  	0	dog       	11	dog05       	114	alive    	1	moves	1	natural 	1	n	0	0        	 	0.0	0	159.28015789995	159.380148999859	0.0999910999089479
224258	100	220	stimuli/nonmovArt/clothespeg/nma_clothespeg10.jpg	1	3	1	nma_clothespeg10.jpg 	nonmovArt	4	clothespeg	8	clothespeg10	89	not_alive	0	still	0	artefact	0	n	0	0        	 	0.0	0	159.43015879998	159.530166899785	0.100008099805564
224408	100	221	stimuli/plant2/clover/plant_clover07.jpg         	1	3	1	plant_clover07.jpg   	plant2   	7	clover    	9	clover07    	96	alive    	1	still	0	natural 	1	n	0	0        	 	0.0	0	159.580160900019	159.680155399721	0.0999944997020066
224558	100	222	stimuli/plant/tree/plant_tree10.jpg              	1	3	1	plant_tree10.jpg     	plant    	6	tree      	35	tree10      	359	alive    	1	still	0	natural 	1	n	0	0        	 	0.0	0	159.730181399733	159.830157599878	0.099976200144738
224708	100	223	stimuli/movArt/bus/ma_bus09.jpg                  	1	3	1	ma_bus09.jpg         	movArt   	2	bus       	3	bus09       	38	not_alive	0	moves	1	artefact	0	n	0	0        	 	0.0	0	159.880175699946	159.980175899807	0.100000199861825
224858	100	224	stimuli/plant2/moss/plant_moss10.jpg             	1	3	1	plant_moss10.jpg     	plant2   	7	moss      	25	moss10      	259	alive    	1	still	0	natural 	1	n	0	0        	 	0.0	0	160.030186499935	160.13016449986	0.0999779999256134
225008	100	225	stimuli/plant2/moss/plant_moss08.jpg             	1	3	1	plant_moss08.jpg     	plant2   	7	moss      	25	moss08      	257	alive    	1	still	0	natural 	1	n	0	0        	 	0.0	0	160.180174399633	160.28016959969	0.0999952000565827
225158	100	226	stimuli/nonmovNat/cliff/nmn_cliff06.jpg          	1	3	1	nmn_cliff06.jpg      	nonmovNat	5	cliff     	7	cliff06     	75	not_alive	0	still	0	natural 	1	n	0	0        	 	0.0	0	160.330178299919	160.430171699729	0.099993399810046
225308	100	227	stimuli/animals2/whale/animal_whale02.jpg        	1	3	1	animal_whale02.jpg   	animals2 	1	whale     	39	whale02     	391	alive    	1	moves	1	natural 	1	n	0	0        	 	0.0	0	160.48018099973	160.580191399902	0.100010400172323
225458	100	228	stimuli/movArt/helicopter/ma_helicopter01.jpg    	1	3	1	ma_helicopter01.jpg  	movArt   	2	helicopter	19	helicopter01	190	not_alive	0	moves	1	artefact	0	n	0	0        	 	0.0	0	160.630185300019	160.730181599967	0.0999962999485433
225608	100	229	stimuli/animals2/whale/animal_whale09.jpg        	1	3	1	animal_whale09.jpg   	animals2 	1	whale     	39	whale09     	398	alive    	1	moves	1	natural 	1	n	0	0        	 	0.0	0	160.780188999604	160.880186399911	0.0999974003061652
225758	100	230	stimuli/animals/horse/animal_horse09.jpg         	1	3	1	animal_horse09.jpg   	animals  	0	horse     	20	horse09     	208	alive    	1	moves	1	natural 	1	n	0	0        	 	0.0	0	160.930192799773	161.030200399924	0.100007600151002
225908	100	231	stimuli/nonmovArt/bench/nma_bench01.jpg          	1	3	1	nma_bench01.jpg      	nonmovArt	4	bench     	1	bench01     	10	not_alive	0	still	0	artefact	0	n	0	0        	 	0.0	0	161.080196199939	161.180190099869	0.0999938999302685
226058	100	232	stimuli/movArt/boat/ma_boat06.jpg                	1	3	1	ma_boat06.jpg        	movArt   	2	boat      	2	boat06      	25	not_alive	0	moves	1	artefact	0	n	0	0        	 	0.0	0	161.230226099957	161.330210799817	0.0999846998602152
226208	100	233	stimuli/nonmovNat/cliff/nmn_cliff07.jpg          	1	3	1	nmn_cliff07.jpg      	nonmovNat	5	cliff     	7	cliff07     	76	not_alive	0	still	0	natural 	1	n	0	0        	 	0.0	0	161.380208799616	161.480207099579	0.0999982999637723
226358	100	234	stimuli/animals2/pigeon/animal_pigeon10.jpg      	1	3	1	animal_pigeon10.jpg  	animals2 	1	pigeon    	28	pigeon10    	289	alive    	1	moves	1	natural 	1	n	0	0        	 	0.0	0	161.530210199766	161.630215299781	0.100005100015551
226508	100	235	stimuli/nonmovNat/rock/nmn_rock05.jpg            	1	3	1	nmn_rock05.jpg       	nonmovNat	5	rock      	30	rock05      	304	not_alive	0	still	0	natural 	1	n	0	0        	 	0.0	0	161.680231599603	161.780220899731	0.0999893001280725
226658	100	236	stimuli/nonmovArt/mug/nma_mug03.jpg              	1	3	1	nma_mug03.jpg        	nonmovArt	4	mug       	26	mug03       	262	not_alive	0	still	0	artefact	0	n	0	0        	 	0.0	0	161.830232199747	161.93022869993	0.0999965001828968
226808	100	237	stimuli/animals/dolphin/animal_dolphin07.jpg     	1	3	1	animal_dolphin07.jpg 	animals  	0	dolphin   	12	dolphin07   	126	alive    	1	moves	1	natural 	1	n	0	0        	 	0.0	0	161.9802207998	162.08021989977	0.0999990999698639
226958	100	238	stimuli/movArt/boat/ma_boat07.jpg                	1	3	1	ma_boat07.jpg        	movArt   	2	boat      	2	boat07      	26	not_alive	0	moves	1	artefact	0	n	0	0        	 	0.0	0	162.130228899885	162.230218600016	0.0999897001311183
227108	100	239	stimuli/movNat/hotspring/mn_hotspring04.jpg      	1	3	1	mn_hotspring04.jpg   	movNat   	3	hotspring 	21	hotspring04 	213	not_alive	0	moves	1	natural 	1	n	0	0        	 	0.0	0	162.280242099892	162.380234299693	0.0999921998009086
230675	100	240	stimuli/animals/dolphin/animal_dolphin07.jpg     	1	4	1	animal_dolphin07.jpg 	animals  	0	dolphin   	12	dolphin07   	126	alive    	1	moves	1	natural 	1	n	0	0        	 	0.0	0	165.846996999811	165.94698809972	0.0999910999089479
230825	100	241	stimuli/movArt/car/ma_car01.jpg                  	1	4	1	ma_car01.jpg         	movArt   	2	car       	5	car01       	50	not_alive	0	moves	1	artefact	0	n	0	0        	 	0.0	0	165.997000099625	166.096977399662	0.0999773000366986
230975	100	242	stimuli/animals2/pigeon/animal_pigeon07.jpg      	1	4	1	animal_pigeon07.jpg  	animals2 	1	pigeon    	28	pigeon07    	286	alive    	1	moves	1	natural 	1	n	0	0        	 	0.0	0	166.146985999774	166.246984899975	0.0999989002011716
231125	100	243	stimuli/movNat/river/mn_river09.jpg              	1	4	1	mn_river09.jpg       	movNat   	3	river     	29	river09     	298	not_alive	0	moves	1	natural 	1	n	0	0        	 	0.0	0	166.297012699768	166.39699769998	0.0999850002117455
231275	100	244	stimuli/movNat/hotspring/mn_hotspring08.jpg      	1	4	1	mn_hotspring08.jpg   	movNat   	3	hotspring 	21	hotspring08 	217	not_alive	0	moves	1	natural 	1	n	0	0        	 	0.0	0	166.447010499891	166.547002199572	0.099991699680686
231425	100	245	stimuli/plant2/moss/plant_moss04.jpg             	1	4	1	plant_moss04.jpg     	plant2   	7	moss      	25	moss04      	253	alive    	1	still	0	natural 	1	n	0	0        	 	0.0	0	166.596997299697	166.696989599615	0.0999922999180853
231575	100	246	stimuli/animals/dog/animal_dog09.jpg             	1	4	1	animal_dog09.jpg     	animals  	0	dog       	11	dog09       	118	alive    	1	moves	1	natural 	1	n	0	0        	 	0.0	0	166.746999899857	166.847005399875	0.100005500018597
231725	100	247	stimuli/nonmovArt/mug/nma_mug03.jpg              	1	4	1	nma_mug03.jpg        	nonmovArt	4	mug       	26	mug03       	262	not_alive	0	still	0	artefact	0	n	0	0        	 	0.0	0	166.897020000033	166.99700029986	0.0999802998267114
231875	100	248	stimuli/nonmovNat/sand/nmn_sand02.jpg            	1	4	1	nmn_sand02.jpg       	nonmovNat	5	sand      	31	sand02      	311	not_alive	0	still	0	natural 	1	n	0	0        	 	0.0	0	167.047014500014	167.147015399765	0.100000899750739
232025	100	249	stimuli/plant2/lemontree/plant_lemontree08.jpg   	1	4	1	plant_lemontree08.jpg	plant2   	7	lemontree 	22	lemontree08 	227	alive    	1	still	0	natural 	1	n	0	0        	 	0.0	0	167.197029699571	167.297027099878	0.0999974003061652
232175	100	250	stimuli/plant/flower/plant_flower02.jpg          	1	4	1	plant_flower02.jpg   	plant    	6	flower    	16	flower02    	161	alive    	1	still	0	natural 	1	n	0	0        	 	0.0	0	167.34701729985	167.447007799987	0.0999905001372099
232325	100	251	stimuli/plant2/fern/plant_fern05.jpg             	1	4	1	plant_fern05.jpg     	plant2   	7	fern      	14	fern05      	144	alive    	1	still	0	natural 	1	n	0	0        	 	0.0	0	167.497019900009	167.597011299804	0.099991399794817
232475	100	252	stimuli/movNat/fire/mn_fire10.jpg                	1	4	1	mn_fire10.jpg        	movNat   	3	fire      	15	fire10      	159	not_alive	0	moves	1	natural 	1	n	1	0        	 	0.0	0	167.647025899962	167.74702989962	0.100003999657929
232625	100	253	stimuli/nonmovArt/clothespeg/nma_clothespeg03.jpg	1	4	1	nma_clothespeg03.jpg 	nonmovArt	4	clothespeg	8	clothespeg03	82	not_alive	0	still	0	artefact	0	n	0	0        	 	0.0	0	167.797044799663	167.89701909991	0.0999743002466857
232775	100	254	stimuli/plant2/lemontree/plant_lemontree01.jpg   	1	4	1	plant_lemontree01.jpg	plant2   	7	lemontree 	22	lemontree01 	220	alive    	1	still	0	natural 	1	n	0	1        	f	0.391958300024271	1	167.947044999804	168.047039499972	0.0999945001676679
232925	100	255	stimuli/movArt/boat/ma_boat05.jpg                	1	4	1	ma_boat05.jpg        	movArt   	2	boat      	2	boat05      	24	not_alive	0	moves	1	artefact	0	n	0	0        	 	0.0	0	168.097041300032	168.197042499669	0.100001199636608
233075	100	256	stimuli/plant2/moss/plant_moss05.jpg             	1	4	1	plant_moss05.jpg     	plant2   	7	moss      	25	moss05      	254	alive    	1	still	0	natural 	1	n	0	0        	 	0.0	0	168.247055599932	168.347031399608	0.0999757996760309
233225	100	257	stimuli/nonmovArt/mug/nma_mug01.jpg              	1	4	1	nma_mug01.jpg        	nonmovArt	4	mug       	26	mug01       	260	not_alive	0	still	0	artefact	0	n	0	0        	 	0.0	0	168.397046499886	168.497036799788	0.0999902999028564
233375	100	258	stimuli/movNat/waves/mn_waves06.jpg              	1	4	1	mn_waves06.jpg       	movNat   	3	waves     	38	waves06     	385	not_alive	0	moves	1	natural 	1	n	0	0        	 	0.0	0	168.54704710003	168.647048099898	0.100000999867916
233525	100	259	stimuli/plant2/clover/plant_clover01.jpg         	1	4	1	plant_clover01.jpg   	plant2   	7	clover    	9	clover01    	90	alive    	1	still	0	natural 	1	n	0	0        	 	0.0	0	168.697049099952	168.79704439966	0.0999952997080982
233675	100	260	stimuli/nonmovNat/rock/nmn_rock02.jpg            	1	4	1	nmn_rock02.jpg       	nonmovNat	5	rock      	30	rock02      	301	not_alive	0	still	0	natural 	1	n	0	0        	 	0.0	0	168.847050299868	168.947060499806	0.100010199937969
233825	100	261	stimuli/nonmovNat/crystal/nmn_crystal08.jpg      	1	4	1	nmn_crystal08.jpg    	nonmovNat	5	crystal   	10	crystal08   	107	not_alive	0	still	0	natural 	1	n	0	0        	 	0.0	0	168.997079999652	169.09705089964	0.0999708999879658
233975	100	262	stimuli/plant/flower/plant_flower05.jpg          	1	4	1	plant_flower05.jpg   	plant    	6	flower    	16	flower05    	164	alive    	1	still	0	natural 	1	n	0	0        	 	0.0	0	169.147060399875	169.247053599916	0.0999932000413537
234125	100	263	stimuli/nonmovArt/headphones/nma_headphones06.jpg	1	4	1	nma_headphones06.jpg 	nonmovArt	4	headphones	18	headphones06	185	not_alive	0	still	0	artefact	0	n	0	0        	 	0.0	0	169.297078599688	169.397057699971	0.0999791002832353
234275	100	264	stimuli/animals/dog/animal_dog02.jpg             	1	4	1	animal_dog02.jpg     	animals  	0	dog       	11	dog02       	111	alive    	1	moves	1	natural 	1	n	0	0        	 	0.0	0	169.447065299842	169.547060299665	0.0999949998222292
234425	100	265	stimuli/nonmovNat/crystal/nmn_crystal04.jpg      	1	4	1	nmn_crystal04.jpg    	nonmovNat	5	crystal   	10	crystal04   	103	not_alive	0	still	0	natural 	1	n	0	0        	 	0.0	0	169.597082099877	169.697065499611	0.099983399733901
234575	100	266	stimuli/animals/dog/animal_dog03.jpg             	1	4	1	animal_dog03.jpg     	animals  	0	dog       	11	dog03       	112	alive    	1	moves	1	natural 	1	n	0	0        	 	0.0	0	169.747073399834	169.847068300005	0.0999949001707137
234725	100	267	stimuli/nonmovNat/crystal/nmn_crystal08.jpg      	1	4	1	nmn_crystal08.jpg    	nonmovNat	5	crystal   	10	crystal08   	107	not_alive	0	still	0	natural 	1	n	0	0        	 	0.0	0	169.897079099901	169.997086599935	0.100007500033826
234875	100	268	stimuli/plant2/clover/plant_clover03.jpg         	1	4	1	plant_clover03.jpg   	plant2   	7	clover    	9	clover03    	92	alive    	1	still	0	natural 	1	n	0	0        	 	0.0	0	170.047082299832	170.147074299864	0.0999920000322163
235025	100	269	stimuli/plant2/clover/plant_clover10.jpg         	1	4	1	plant_clover10.jpg   	plant2   	7	clover    	9	clover10    	99	alive    	1	still	0	natural 	1	n	0	0        	 	0.0	0	170.197084499989	170.29709509993	0.100010599941015
235175	100	270	stimuli/plant/vine/plant_vine10.jpg              	1	4	1	plant_vine10.jpg     	plant    	6	vine      	36	vine10      	369	alive    	1	still	0	natural 	1	n	0	0        	 	0.0	0	170.34709119983	170.447087700013	0.0999965001828968
235325	100	271	stimuli/movArt/helicopter/ma_helicopter10.jpg    	1	4	1	ma_helicopter10.jpg  	movArt   	2	helicopter	19	helicopter10	199	not_alive	0	moves	1	artefact	0	n	0	0        	 	0.0	0	170.497095999774	170.597099300008	0.100003300234675
235475	100	272	stimuli/movArt/helicopter/ma_helicopter08.jpg    	1	4	1	ma_helicopter08.jpg  	movArt   	2	helicopter	19	helicopter08	197	not_alive	0	moves	1	artefact	0	n	0	0        	 	0.0	0	170.647099899594	170.747104799841	0.100004900246859
235625	100	273	stimuli/animals2/tiger/animal_tiger04.jpg        	1	4	1	animal_tiger04.jpg   	animals2 	1	tiger     	33	tiger04     	333	alive    	1	moves	1	natural 	1	n	0	0        	 	0.0	0	170.797103899997	170.897107800003	0.100003900006413
235775	100	274	stimuli/movArt/bus/ma_bus08.jpg                  	1	4	1	ma_bus08.jpg         	movArt   	2	bus       	3	bus08       	37	not_alive	0	moves	1	artefact	0	n	0	0        	 	0.0	0	170.947105099913	171.047097199596	0.0999920996837318
235925	100	275	stimuli/plant/vine/plant_vine03.jpg              	1	4	1	plant_vine03.jpg     	plant    	6	vine      	36	vine03      	362	alive    	1	still	0	natural 	1	n	0	0        	 	0.0	0	171.097106099594	171.197114399634	0.100008300039917
236075	100	276	stimuli/nonmovNat/shell/nmn_shell03.jpg          	1	4	1	nmn_shell03.jpg      	nonmovNat	5	shell     	32	shell03     	322	not_alive	0	still	0	natural 	1	n	0	0        	 	0.0	0	171.247126400005	171.347105399705	0.0999789997003972
236225	100	277	stimuli/plant2/palmtree/plant_palmtree06.jpg     	1	4	1	plant_palmtree06.jpg 	plant2   	7	palmtree  	27	palmtree06  	275	alive    	1	still	0	natural 	1	n	0	0        	 	0.0	0	171.397130799945	171.497110799886	0.0999799999408424
236375	100	278	stimuli/movArt/boat/ma_boat06.jpg                	1	4	1	ma_boat06.jpg        	movArt   	2	boat      	2	boat06      	25	not_alive	0	moves	1	artefact	0	n	0	0        	 	0.0	0	171.54713839991	171.647110600024	0.09997220011428
236525	100	279	stimuli/nonmovNat/rock/nmn_rock02.jpg            	1	4	1	nmn_rock02.jpg       	nonmovNat	5	rock      	30	rock02      	301	not_alive	0	still	0	natural 	1	n	0	0        	 	0.0	0	171.69713779958	171.797131699976	0.0999939003959298
236675	100	280	stimuli/movArt/train/ma_train10.jpg              	1	4	1	ma_train10.jpg       	movArt   	2	train     	34	train10     	349	not_alive	0	moves	1	artefact	0	n	0	0        	 	0.0	0	171.847128499765	171.947112399619	0.0999838998541236
236825	100	281	stimuli/plant/grass/plant_grass03.jpg            	1	4	1	plant_grass03.jpg    	plant    	6	grass     	17	grass03     	172	alive    	1	still	0	natural 	1	n	0	0        	 	0.0	0	171.997130400036	172.097121199593	0.0999907995574176
236975	100	282	stimuli/nonmovArt/lock/nma_lock09.jpg            	1	4	1	nma_lock09.jpg       	nonmovArt	4	lock      	24	lock09      	248	not_alive	0	still	0	artefact	0	n	0	0        	 	0.0	0	172.147147899959	172.247124099638	0.0999761996790767
237125	100	283	stimuli/movNat/hotspring/mn_hotspring07.jpg      	1	4	1	mn_hotspring07.jpg   	movNat   	3	hotspring 	21	hotspring07 	216	not_alive	0	moves	1	natural 	1	n	0	0        	 	0.0	0	172.297129299957	172.397148799617	0.100019499659538
237275	100	284	stimuli/nonmovArt/lock/nma_lock01.jpg            	1	4	1	nma_lock01.jpg       	nonmovArt	4	lock      	24	lock01      	240	not_alive	0	still	0	artefact	0	n	0	0        	 	0.0	0	172.447138699703	172.547131499741	0.0999928000383079
237425	100	285	stimuli/plant2/moss/plant_moss04.jpg             	1	4	1	plant_moss04.jpg     	plant2   	7	moss      	25	moss04      	253	alive    	1	still	0	natural 	1	n	0	0        	 	0.0	0	172.597158999648	172.697162299883	0.100003300234675
237575	100	286	stimuli/animals2/tiger/animal_tiger05.jpg        	1	4	1	animal_tiger05.jpg   	animals2 	1	tiger     	33	tiger05     	334	alive    	1	moves	1	natural 	1	n	0	0        	 	0.0	0	172.747146699578	172.847141199745	0.0999945001676679
237725	100	287	stimuli/nonmovArt/bench/nma_bench04.jpg          	1	4	1	nma_bench04.jpg      	nonmovArt	4	bench     	1	bench04     	13	not_alive	0	still	0	artefact	0	n	1	0        	 	0.0	0	172.897169999778	172.997142999899	0.0999730001203716
237875	100	288	stimuli/animals/horse/animal_horse06.jpg         	1	4	1	animal_horse06.jpg   	animals  	0	horse     	20	horse06     	205	alive    	1	moves	1	natural 	1	n	0	0        	 	0.0	0	173.047161799856	173.147161599714	0.0999997998587787
238025	100	289	stimuli/nonmovArt/clothespeg/nma_clothespeg10.jpg	1	4	1	nma_clothespeg10.jpg 	nonmovArt	4	clothespeg	8	clothespeg10	89	not_alive	0	still	0	artefact	0	n	0	1        	f	0.292078599799424	1	173.197174399626	173.2971522999	0.0999779002740979
238175	100	290	stimuli/animals/dolphin/animal_dolphin06.jpg     	1	4	1	animal_dolphin06.jpg 	animals  	0	dolphin   	12	dolphin06   	125	alive    	1	moves	1	natural 	1	n	0	0        	 	0.0	0	173.347161399666	173.447160299867	0.0999989002011716
238325	100	291	stimuli/movArt/boat/ma_boat03.jpg                	1	4	1	ma_boat03.jpg        	movArt   	2	boat      	2	boat03      	22	not_alive	0	moves	1	artefact	0	n	0	0        	 	0.0	0	173.497163999826	173.597158899996	0.0999949001707137
238475	100	292	stimuli/movArt/bus/ma_bus09.jpg                  	1	4	1	ma_bus09.jpg         	movArt   	2	bus       	3	bus09       	38	not_alive	0	moves	1	artefact	0	n	0	0        	 	0.0	0	173.64718029974	173.747177599929	0.0999973001889884
238625	100	293	stimuli/nonmovNat/shell/nmn_shell02.jpg          	1	4	1	nmn_shell02.jpg      	nonmovNat	5	shell     	32	shell02     	321	not_alive	0	still	0	natural 	1	n	0	0        	 	0.0	0	173.79715009965	173.897163799964	0.100013700313866
238775	100	294	stimuli/movArt/car/ma_car10.jpg                  	1	4	1	ma_car10.jpg         	movArt   	2	car       	5	car10       	59	not_alive	0	moves	1	artefact	0	n	0	0        	 	0.0	0	173.947174399626	174.047174499836	0.100000100210309
238925	100	295	stimuli/animals2/pigeon/animal_pigeon07.jpg      	1	4	1	animal_pigeon07.jpg  	animals2 	1	pigeon    	28	pigeon07    	286	alive    	1	moves	1	natural 	1	n	0	0        	 	0.0	0	174.097185499966	174.19717859989	0.0999930999241769
239075	100	296	stimuli/nonmovArt/headphones/nma_headphones01.jpg	1	4	1	nma_headphones01.jpg 	nonmovArt	4	headphones	18	headphones01	180	not_alive	0	still	0	artefact	0	n	0	0        	 	0.0	0	174.247181299608	174.347176599782	0.0999953001737595
239225	100	297	stimuli/plant2/lemontree/plant_lemontree02.jpg   	1	4	1	plant_lemontree02.jpg	plant2   	7	lemontree 	22	lemontree02 	221	alive    	1	still	0	natural 	1	n	0	0        	 	0.0	0	174.397187300026	174.497180099599	0.0999927995726466
239375	100	298	stimuli/animals/eagle/animal_eagle08.jpg         	1	4	1	animal_eagle08.jpg   	animals  	0	eagle     	13	eagle08     	137	alive    	1	moves	1	natural 	1	n	0	0        	 	0.0	0	174.547211499885	174.64718499966	0.0999734997749329
239525	100	299	stimuli/animals2/whale/animal_whale06.jpg        	1	4	1	animal_whale06.jpg   	animals2 	1	whale     	39	whale06     	395	alive    	1	moves	1	natural 	1	n	0	0        	 	0.0	0	174.697197699919	174.797190799844	0.0999930999241769
239675	100	300	stimuli/animals/horse/animal_horse01.jpg         	1	4	1	animal_horse01.jpg   	animals  	0	horse     	20	horse01     	200	alive    	1	moves	1	natural 	1	n	0	0        	 	0.0	0	174.847198199946	174.947193299886	0.0999950999394059
239825	100	301	stimuli/movNat/river/mn_river03.jpg              	1	4	1	mn_river03.jpg       	movNat   	3	river     	29	river03     	292	not_alive	0	moves	1	natural 	1	n	0	0        	 	0.0	0	174.997219299898	175.097210999578	0.099991699680686
239975	100	302	stimuli/nonmovArt/bench/nma_bench04.jpg          	1	4	1	nma_bench04.jpg      	nonmovArt	4	bench     	1	bench04     	13	not_alive	0	still	0	artefact	0	n	0	0        	 	0.0	0	175.147205299698	175.247215599753	0.100010300055146
240125	100	303	stimuli/animals2/whale/animal_whale04.jpg        	1	4	1	animal_whale04.jpg   	animals2 	1	whale     	39	whale04     	393	alive    	1	moves	1	natural 	1	n	0	0        	 	0.0	0	175.297224699985	175.397200699896	0.0999759999103844
240275	100	304	stimuli/nonmovNat/rock/nmn_rock06.jpg            	1	4	1	nmn_rock06.jpg       	nonmovNat	5	rock      	30	rock06      	305	not_alive	0	still	0	natural 	1	n	0	0        	 	0.0	0	175.447211099789	175.547206799965	0.0999957001768053
240425	100	305	stimuli/movArt/car/ma_car06.jpg                  	1	4	1	ma_car06.jpg         	movArt   	2	car       	5	car06       	55	not_alive	0	moves	1	artefact	0	n	0	0        	 	0.0	0	175.597217299975	175.697213099804	0.0999957998283207
240575	100	306	stimuli/nonmovNat/cliff/nmn_cliff02.jpg          	1	4	1	nmn_cliff02.jpg      	nonmovNat	5	cliff     	7	cliff02     	71	not_alive	0	still	0	natural 	1	n	0	0        	 	0.0	0	175.747222099919	175.847211899702	0.0999897997826338
240725	100	307	stimuli/animals/eagle/animal_eagle08.jpg         	1	4	1	animal_eagle08.jpg   	animals  	0	eagle     	13	eagle08     	137	alive    	1	moves	1	natural 	1	n	0	0        	 	0.0	0	175.897227999754	175.997232199647	0.100004199892282
240875	100	308	stimuli/nonmovArt/lock/nma_lock08.jpg            	1	4	1	nma_lock08.jpg       	nonmovArt	4	lock      	24	lock08      	247	not_alive	0	still	0	artefact	0	n	0	0        	 	0.0	0	176.047226299997	176.147224899847	0.0999985998496413
241025	100	309	stimuli/nonmovNat/shell/nmn_shell10.jpg          	1	4	1	nmn_shell10.jpg      	nonmovNat	5	shell     	32	shell10     	329	not_alive	0	still	0	natural 	1	n	0	0        	 	0.0	0	176.197246199939	176.297225599643	0.099979399703443
241175	100	310	stimuli/animals/eagle/animal_eagle10.jpg         	1	4	1	animal_eagle10.jpg   	animals  	0	eagle     	13	eagle10     	139	alive    	1	moves	1	natural 	1	n	0	0        	 	0.0	0	176.347252700012	176.447249799967	0.0999970999546349
241325	100	311	stimuli/movNat/hotspring/mn_hotspring02.jpg      	1	4	1	mn_hotspring02.jpg   	movNat   	3	hotspring 	21	hotspring02 	211	not_alive	0	moves	1	natural 	1	n	0	0        	 	0.0	0	176.497257199604	176.597230699845	0.0999735002405942
241475	100	312	stimuli/nonmovArt/mug/nma_mug10.jpg              	1	4	1	nma_mug10.jpg        	nonmovArt	4	mug       	26	mug10       	269	not_alive	0	still	0	artefact	0	n	0	0        	 	0.0	0	176.647240399849	176.747209599707	0.0999691998586059
241625	100	313	stimuli/animals2/bee/animal_bee05.jpg            	1	4	1	animal_bee05.jpg     	animals2 	1	bee       	0	bee05       	4	alive    	1	moves	1	natural 	1	n	0	0        	 	0.0	0	176.797245400026	176.89723919984	0.0999937998130918
241775	100	314	stimuli/animals2/tiger/animal_tiger08.jpg        	1	4	1	animal_tiger08.jpg   	animals2 	1	tiger     	33	tiger08     	337	alive    	1	moves	1	natural 	1	n	0	0        	 	0.0	0	176.947248899844	177.04725629976	0.100007399916649
241925	100	315	stimuli/animals/cat/animal_cat07.jpg             	1	4	1	animal_cat07.jpg     	animals  	0	cat       	6	cat07       	66	alive    	1	moves	1	natural 	1	n	0	0        	 	0.0	0	177.097269199789	177.197246299591	0.099977099802345
242075	100	316	stimuli/movNat/waves/mn_waves01.jpg              	1	4	1	mn_waves01.jpg       	movNat   	3	waves     	38	waves01     	380	not_alive	0	moves	1	natural 	1	n	0	0        	 	0.0	0	177.247258099727	177.347249999642	0.0999918999150395
242225	100	317	stimuli/movNat/waterfall/mn_waterfall03.jpg      	1	4	1	mn_waterfall03.jpg   	movNat   	3	waterfall 	37	waterfall03 	372	not_alive	0	moves	1	natural 	1	n	0	0        	 	0.0	0	177.397274099756	177.497252299916	0.099978200159967
242375	100	318	stimuli/animals2/lemur/animal_lemur01.jpg        	1	4	1	animal_lemur01.jpg   	animals2 	1	lemur     	23	lemur01     	230	alive    	1	moves	1	natural 	1	n	0	0        	 	0.0	0	177.54727939982	177.647271199618	0.0999917997978628
242525	100	319	stimuli/plant2/fern/plant_fern02.jpg             	1	4	1	plant_fern02.jpg     	plant2   	7	fern      	14	fern02      	141	alive    	1	still	0	natural 	1	n	0	0        	 	0.0	0	177.697267199866	177.797261099797	0.0999938999302685
245942	100	320	stimuli/movNat/river/mn_river06.jpg              	1	5	1	mn_river06.jpg       	movNat   	3	river     	29	river06     	295	not_alive	0	moves	1	natural 	1	n	0	0        	 	0.0	0	181.114033999853	181.21402449999	0.0999905001372099
246092	100	321	stimuli/plant/tree/plant_tree04.jpg              	1	5	1	plant_tree04.jpg     	plant    	6	tree      	35	tree04      	353	alive    	1	still	0	natural 	1	n	0	0        	 	0.0	0	181.264019099995	181.364014099818	0.0999949998222292
246242	100	322	stimuli/movArt/train/ma_train06.jpg              	1	5	1	ma_train06.jpg       	movArt   	2	train     	34	train06     	345	not_alive	0	moves	1	artefact	0	n	0	0        	 	0.0	0	181.414022899698	181.514020799659	0.0999978999607265
246392	100	323	stimuli/nonmovNat/sand/nmn_sand05.jpg            	1	5	1	nmn_sand05.jpg       	nonmovNat	5	sand      	31	sand05      	314	not_alive	0	still	0	natural 	1	n	0	0        	 	0.0	0	181.564027499873	181.664034300018	0.100006800144911
246542	100	324	stimuli/plant/cactus/plant_cactus01.jpg          	1	5	1	plant_cactus01.jpg   	plant    	6	cactus    	4	cactus01    	40	alive    	1	still	0	natural 	1	n	0	0        	 	0.0	0	181.714030100033	181.814041299745	0.100011199712753
246692	100	325	stimuli/nonmovNat/cliff/nmn_cliff03.jpg          	1	5	1	nmn_cliff03.jpg      	nonmovNat	5	cliff     	7	cliff03     	72	not_alive	0	still	0	natural 	1	n	0	0        	 	0.0	0	181.864034699742	181.964037899859	0.100003200117499
246842	100	326	stimuli/movNat/waterfall/mn_waterfall04.jpg      	1	5	1	mn_waterfall04.jpg   	movNat   	3	waterfall 	37	waterfall04 	373	not_alive	0	moves	1	natural 	1	n	0	0        	 	0.0	0	182.014059099834	182.11402839981	0.0999692999757826
246992	100	327	stimuli/plant/cactus/plant_cactus02.jpg          	1	5	1	plant_cactus02.jpg   	plant    	6	cactus    	4	cactus02    	41	alive    	1	still	0	natural 	1	n	0	0        	 	0.0	0	182.164046499878	182.264033399988	0.0999869001097977
247142	100	328	stimuli/plant2/fern/plant_fern05.jpg             	1	5	1	plant_fern05.jpg     	plant2   	7	fern      	14	fern05      	144	alive    	1	still	0	natural 	1	n	0	0        	 	0.0	0	182.314060200006	182.414038299583	0.0999780995771289
247292	100	329	stimuli/animals/cat/animal_cat01.jpg             	1	5	1	animal_cat01.jpg     	animals  	0	cat       	6	cat01       	60	alive    	1	moves	1	natural 	1	n	0	0        	 	0.0	0	182.464051299728	182.564039599616	0.0999882998876274
247442	100	330	stimuli/animals2/whale/animal_whale06.jpg        	1	5	1	animal_whale06.jpg   	animals2 	1	whale     	39	whale06     	395	alive    	1	moves	1	natural 	1	n	0	0        	 	0.0	0	182.614052199759	182.714046299923	0.0999941001646221
247592	100	331	stimuli/movNat/fire/mn_fire09.jpg                	1	5	1	mn_fire09.jpg        	movNat   	3	fire      	15	fire09      	158	not_alive	0	moves	1	natural 	1	n	0	0        	 	0.0	0	182.764071399812	182.864074999932	0.100003600120544
247742	100	332	stimuli/animals/cat/animal_cat06.jpg             	1	5	1	animal_cat06.jpg     	animals  	0	cat       	6	cat06       	65	alive    	1	moves	1	natural 	1	n	0	0        	 	0.0	0	182.914059899747	183.014052999672	0.0999930999241769
247892	100	333	stimuli/nonmovNat/sand/nmn_sand07.jpg            	1	5	1	nmn_sand07.jpg       	nonmovNat	5	sand      	31	sand07      	316	not_alive	0	still	0	natural 	1	n	0	0        	 	0.0	0	183.064063699916	183.164072399959	0.100008700042963
248042	100	334	stimuli/plant2/palmtree/plant_palmtree08.jpg     	1	5	1	plant_palmtree08.jpg 	plant2   	7	palmtree  	27	palmtree08  	277	alive    	1	still	0	natural 	1	n	0	0        	 	0.0	0	183.214056599885	183.314048199914	0.0999916000291705
248192	100	335	stimuli/animals2/bee/animal_bee05.jpg            	1	5	1	animal_bee05.jpg     	animals2 	1	bee       	0	bee05       	4	alive    	1	moves	1	natural 	1	n	0	0        	 	0.0	0	183.364061499946	183.46405109996	0.0999896000139415
248342	100	336	stimuli/plant/cactus/plant_cactus04.jpg          	1	5	1	plant_cactus04.jpg   	plant    	6	cactus    	4	cactus04    	43	alive    	1	still	0	natural 	1	n	0	0        	 	0.0	0	183.514068499673	183.614054899663	0.0999863999895752
248492	100	337	stimuli/nonmovArt/bench/nma_bench06.jpg          	1	5	1	nma_bench06.jpg      	nonmovArt	4	bench     	1	bench06     	15	not_alive	0	still	0	artefact	0	n	0	0        	 	0.0	0	183.664064900018	183.764061299618	0.0999963996000588
248642	100	338	stimuli/plant/grass/plant_grass02.jpg            	1	5	1	plant_grass02.jpg    	plant    	6	grass     	17	grass02     	171	alive    	1	still	0	natural 	1	n	0	0        	 	0.0	0	183.814069999848	183.914061699994	0.0999917001463473
248792	100	339	stimuli/plant2/palmtree/plant_palmtree06.jpg     	1	5	1	plant_palmtree06.jpg 	plant2   	7	palmtree  	27	palmtree06  	275	alive    	1	still	0	natural 	1	n	0	0        	 	0.0	0	183.96413540002	184.064065999817	0.0999305997975171
248942	100	340	stimuli/movArt/helicopter/ma_helicopter04.jpg    	1	5	1	ma_helicopter04.jpg  	movArt   	2	helicopter	19	helicopter04	193	not_alive	0	moves	1	artefact	0	n	1	0        	 	0.0	0	184.114076099824	184.21407199977	0.0999958999454975
249092	100	341	stimuli/plant/tree/plant_tree05.jpg              	1	5	1	plant_tree05.jpg     	plant    	6	tree      	35	tree05      	354	alive    	1	still	0	natural 	1	n	0	0        	 	0.0	0	184.264080699999	184.36407339992	0.0999926999211311
249242	100	342	stimuli/plant/flower/plant_flower09.jpg          	1	5	1	plant_flower09.jpg   	plant    	6	flower    	16	flower09    	168	alive    	1	still	0	natural 	1	n	0	1        	f	0.391954800114036	1	184.414083799813	184.514079399873	0.0999956000596285
249392	100	343	stimuli/animals2/bee/animal_bee07.jpg            	1	5	1	animal_bee07.jpg     	animals2 	1	bee       	0	bee07       	6	alive    	1	moves	1	natural 	1	n	0	0        	 	0.0	0	184.564090199769	184.664080499671	0.0999902999028564
249542	100	344	stimuli/nonmovArt/headphones/nma_headphones04.jpg	1	5	1	nma_headphones04.jpg 	nonmovArt	4	headphones	18	headphones04	183	not_alive	0	still	0	artefact	0	n	0	0        	 	0.0	0	184.714112099726	184.814088399988	0.0999763002619147
249692	100	345	stimuli/movNat/fire/mn_fire06.jpg                	1	5	1	mn_fire06.jpg        	movNat   	3	fire      	15	fire06      	155	not_alive	0	moves	1	natural 	1	n	0	0        	 	0.0	0	184.86409479985	184.964106899686	0.100012099836022
249842	100	346	stimuli/nonmovArt/clothespeg/nma_clothespeg07.jpg	1	5	1	nma_clothespeg07.jpg 	nonmovArt	4	clothespeg	8	clothespeg07	86	not_alive	0	still	0	artefact	0	n	0	0        	 	0.0	0	185.014109499752	185.114120099694	0.100010599941015
249992	100	347	stimuli/animals2/lemur/animal_lemur02.jpg        	1	5	1	animal_lemur02.jpg   	animals2 	1	lemur     	23	lemur02     	231	alive    	1	moves	1	natural 	1	n	0	0        	 	0.0	0	185.16410479974	185.264095299877	0.0999905001372099
250142	100	348	stimuli/animals2/lemur/animal_lemur01.jpg        	1	5	1	animal_lemur01.jpg   	animals2 	1	lemur     	23	lemur01     	230	alive    	1	moves	1	natural 	1	n	0	0        	 	0.0	0	185.314108599909	185.414100099821	0.0999914999119937
250292	100	349	stimuli/movArt/bus/ma_bus07.jpg                  	1	5	1	ma_bus07.jpg         	movArt   	2	bus       	3	bus07       	36	not_alive	0	moves	1	artefact	0	n	0	0        	 	0.0	0	185.464129399974	185.564104499761	0.099975099787116
250442	100	350	stimuli/plant/vine/plant_vine02.jpg              	1	5	1	plant_vine02.jpg     	plant    	6	vine      	36	vine02      	361	alive    	1	still	0	natural 	1	n	0	0        	 	0.0	0	185.614113099873	185.71413319977	0.100020099896938
250592	100	351	stimuli/plant/tree/plant_tree07.jpg              	1	5	1	plant_tree07.jpg     	plant    	6	tree      	35	tree07      	356	alive    	1	still	0	natural 	1	n	0	0        	 	0.0	0	185.764116299804	185.864123099949	0.100006800144911
250742	100	352	stimuli/movNat/waves/mn_waves09.jpg              	1	5	1	mn_waves09.jpg       	movNat   	3	waves     	38	waves09     	388	not_alive	0	moves	1	natural 	1	n	0	0        	 	0.0	0	185.914119799621	186.014114199672	0.0999944000504911
250892	100	353	stimuli/movArt/train/ma_train02.jpg              	1	5	1	ma_train02.jpg       	movArt   	2	train     	34	train02     	341	not_alive	0	moves	1	artefact	0	n	0	0        	 	0.0	0	186.064124499913	186.164120199624	0.099995699711144
251042	100	354	stimuli/animals/horse/animal_horse03.jpg         	1	5	1	animal_horse03.jpg   	animals  	0	horse     	20	horse03     	202	alive    	1	moves	1	natural 	1	n	0	0        	 	0.0	0	186.214157499839	186.314119399991	0.099961900152266
251192	100	355	stimuli/movNat/waterfall/mn_waterfall04.jpg      	1	5	1	mn_waterfall04.jpg   	movNat   	3	waterfall 	37	waterfall04 	373	not_alive	0	moves	1	natural 	1	n	0	0        	 	0.0	0	186.364131299779	186.464137299918	0.100006000138819
251342	100	356	stimuli/animals2/pigeon/animal_pigeon05.jpg      	1	5	1	animal_pigeon05.jpg  	animals2 	1	pigeon    	28	pigeon05    	284	alive    	1	moves	1	natural 	1	n	0	0        	 	0.0	0	186.514135699719	186.614126999863	0.0999913001433015
251492	100	357	stimuli/animals/dolphin/animal_dolphin04.jpg     	1	5	1	animal_dolphin04.jpg 	animals  	0	dolphin   	12	dolphin04   	123	alive    	1	moves	1	natural 	1	n	0	0        	 	0.0	0	186.664138799999	186.764131299686	0.0999924996867776
251642	100	358	stimuli/plant/grass/plant_grass09.jpg            	1	5	1	plant_grass09.jpg    	plant    	6	grass     	17	grass09     	178	alive    	1	still	0	natural 	1	n	0	0        	 	0.0	0	186.814157099929	186.914135099854	0.0999779999256134
251792	100	359	stimuli/nonmovNat/cliff/nmn_cliff06.jpg          	1	5	1	nmn_cliff06.jpg      	nonmovNat	5	cliff     	7	cliff06     	75	not_alive	0	still	0	natural 	1	n	0	0        	 	0.0	0	186.964175299741	187.064139700029	0.0999644002877176
251942	100	360	stimuli/animals/dolphin/animal_dolphin01.jpg     	1	5	1	animal_dolphin01.jpg 	animals  	0	dolphin   	12	dolphin01   	120	alive    	1	moves	1	natural 	1	n	0	0        	 	0.0	0	187.114149699919	187.214144399855	0.0999946999363601
252092	100	361	stimuli/movNat/river/mn_river01.jpg              	1	5	1	mn_river01.jpg       	movNat   	3	river     	29	river01     	290	not_alive	0	moves	1	natural 	1	n	0	0        	 	0.0	0	187.264158299658	187.364146200009	0.0999879003502428
252242	100	362	stimuli/plant2/lemontree/plant_lemontree05.jpg   	1	5	1	plant_lemontree05.jpg	plant2   	7	lemontree 	22	lemontree05 	224	alive    	1	still	0	natural 	1	n	0	0        	 	0.0	0	187.414156700019	187.514149599709	0.0999928996898234
252392	100	363	stimuli/plant/tree/plant_tree09.jpg              	1	5	1	plant_tree09.jpg     	plant    	6	tree      	35	tree09      	358	alive    	1	still	0	natural 	1	n	0	0        	 	0.0	0	187.564180999994	187.66415279964	0.0999717996455729
252542	100	364	stimuli/nonmovArt/mug/nma_mug02.jpg              	1	5	1	nma_mug02.jpg        	nonmovArt	4	mug       	26	mug02       	261	not_alive	0	still	0	artefact	0	n	0	0        	 	0.0	0	187.714177099988	187.814158699941	0.0999815999530256
252692	100	365	stimuli/nonmovNat/sand/nmn_sand07.jpg            	1	5	1	nmn_sand07.jpg       	nonmovNat	5	sand      	31	sand07      	316	not_alive	0	still	0	natural 	1	n	0	0        	 	0.0	0	187.86416939972	187.964173099957	0.100003700237721
252842	100	366	stimuli/movArt/train/ma_train08.jpg              	1	5	1	ma_train08.jpg       	movArt   	2	train     	34	train08     	347	not_alive	0	moves	1	artefact	0	n	0	0        	 	0.0	0	188.014171199873	188.114165399689	0.0999941998161376
252992	100	367	stimuli/plant/flower/plant_flower06.jpg          	1	5	1	plant_flower06.jpg   	plant    	6	flower    	16	flower06    	165	alive    	1	still	0	natural 	1	n	0	0        	 	0.0	0	188.164175899699	188.264168799855	0.0999929001554847
253142	100	368	stimuli/movNat/waterfall/mn_waterfall04.jpg      	1	5	1	mn_waterfall04.jpg   	movNat   	3	waterfall 	37	waterfall04 	373	not_alive	0	moves	1	natural 	1	n	0	0        	 	0.0	0	188.314185299911	188.414171000011	0.0999857001006603
253292	100	369	stimuli/animals2/pigeon/animal_pigeon03.jpg      	1	5	1	animal_pigeon03.jpg  	animals2 	1	pigeon    	28	pigeon03    	282	alive    	1	moves	1	natural 	1	n	0	0        	 	0.0	0	188.464183799922	188.564175699838	0.0999918999150395
253442	100	370	stimuli/nonmovArt/mug/nma_mug04.jpg              	1	5	1	nma_mug04.jpg        	nonmovArt	4	mug       	26	mug04       	263	not_alive	0	still	0	artefact	0	n	0	0        	 	0.0	0	188.614187099971	188.714179900009	0.0999928000383079
253592	100	371	stimuli/nonmovNat/shell/nmn_shell09.jpg          	1	5	1	nmn_shell09.jpg      	nonmovNat	5	shell     	32	shell09     	328	not_alive	0	still	0	natural 	1	n	0	0        	 	0.0	0	188.764190699905	188.864182399586	0.099991699680686
253742	100	372	stimuli/nonmovNat/shell/nmn_shell09.jpg          	1	5	1	nmn_shell09.jpg      	nonmovNat	5	shell     	32	shell09     	328	not_alive	0	still	0	natural 	1	n	0	0        	 	0.0	0	188.914194199722	189.014188099653	0.0999938999302685
253892	100	373	stimuli/nonmovArt/lock/nma_lock05.jpg            	1	5	1	nma_lock05.jpg       	nonmovArt	4	lock      	24	lock05      	244	not_alive	0	still	0	artefact	0	n	0	0        	 	0.0	0	189.064196099993	189.164214799646	0.100018699653447
254042	100	374	stimuli/plant2/clover/plant_clover06.jpg         	1	5	1	plant_clover06.jpg   	plant2   	7	clover    	9	clover06    	95	alive    	1	still	0	natural 	1	n	0	0        	 	0.0	0	189.214198699687	189.314193799626	0.0999950999394059
254192	100	375	stimuli/animals2/whale/animal_whale07.jpg        	1	5	1	animal_whale07.jpg   	animals2 	1	whale     	39	whale07     	396	alive    	1	moves	1	natural 	1	n	1	0        	 	0.0	0	189.364204499871	189.464198200032	0.0999937001615763
254342	100	376	stimuli/nonmovNat/crystal/nmn_crystal02.jpg      	1	5	1	nmn_crystal02.jpg    	nonmovNat	5	crystal   	10	crystal02   	101	not_alive	0	still	0	natural 	1	n	0	0        	 	0.0	0	189.514206300024	189.61420099996	0.0999946999363601
254492	100	377	stimuli/movNat/hotspring/mn_hotspring10.jpg      	1	5	1	mn_hotspring10.jpg   	movNat   	3	hotspring 	21	hotspring10 	219	not_alive	0	moves	1	natural 	1	n	0	1        	f	0.300747999921441	1	189.66424059961	189.764218399767	0.0999778001569212
254642	100	378	stimuli/nonmovArt/headphones/nma_headphones03.jpg	1	5	1	nma_headphones03.jpg 	nonmovArt	4	headphones	18	headphones03	182	not_alive	0	still	0	artefact	0	n	0	0        	 	0.0	0	189.814228399657	189.914220299572	0.0999918999150395
254792	100	379	stimuli/nonmovNat/cliff/nmn_cliff08.jpg          	1	5	1	nmn_cliff08.jpg      	nonmovNat	5	cliff     	7	cliff08     	77	not_alive	0	still	0	natural 	1	n	0	0        	 	0.0	0	189.964231299702	190.064232599922	0.100001300219446
254942	100	380	stimuli/plant/vine/plant_vine07.jpg              	1	5	1	plant_vine07.jpg     	plant    	6	vine      	36	vine07      	366	alive    	1	still	0	natural 	1	n	0	0        	 	0.0	0	190.114233999979	190.21422720002	0.0999932000413537
255092	100	381	stimuli/plant/vine/plant_vine06.jpg              	1	5	1	plant_vine06.jpg     	plant    	6	vine      	36	vine06      	365	alive    	1	still	0	natural 	1	n	0	0        	 	0.0	0	190.264238299802	190.364232099615	0.0999937998130918
255242	100	382	stimuli/plant2/clover/plant_clover07.jpg         	1	5	1	plant_clover07.jpg   	plant2   	7	clover    	9	clover07    	96	alive    	1	still	0	natural 	1	n	0	0        	 	0.0	0	190.414242099971	190.514246299863	0.100004199892282
255392	100	383	stimuli/movArt/car/ma_car05.jpg                  	1	5	1	ma_car05.jpg         	movArt   	2	car       	5	car05       	54	not_alive	0	moves	1	artefact	0	n	0	0        	 	0.0	0	190.564247099683	190.664239199832	0.0999921001493931
255542	100	384	stimuli/nonmovArt/bench/nma_bench07.jpg          	1	5	1	nma_bench07.jpg      	nonmovArt	4	bench     	1	bench07     	16	not_alive	0	still	0	artefact	0	n	0	0        	 	0.0	0	190.714248399716	190.814240999986	0.0999926002696156
255692	100	385	stimuli/animals2/pigeon/animal_pigeon06.jpg      	1	5	1	animal_pigeon06.jpg  	animals2 	1	pigeon    	28	pigeon06    	285	alive    	1	moves	1	natural 	1	n	0	0        	 	0.0	0	190.86425199965	190.96424709959	0.0999950999394059
255842	100	386	stimuli/plant/cactus/plant_cactus06.jpg          	1	5	1	plant_cactus06.jpg   	plant    	6	cactus    	4	cactus06    	45	alive    	1	still	0	natural 	1	n	0	0        	 	0.0	0	191.014255399816	191.114251499996	0.0999961001798511
255992	100	387	stimuli/plant/grass/plant_grass01.jpg            	1	5	1	plant_grass01.jpg    	plant    	6	grass     	17	grass01     	170	alive    	1	still	0	natural 	1	n	0	0        	 	0.0	0	191.164258399978	191.264252299909	0.0999938999302685
256142	100	388	stimuli/plant2/moss/plant_moss01.jpg             	1	5	1	plant_moss01.jpg     	plant2   	7	moss      	25	moss01      	250	alive    	1	still	0	natural 	1	n	0	0        	 	0.0	0	191.31426159991	191.414272899739	0.10001129982993
256292	100	389	stimuli/animals/dog/animal_dog02.jpg             	1	5	1	animal_dog02.jpg     	animals  	0	dog       	11	dog02       	111	alive    	1	moves	1	natural 	1	n	0	0        	 	0.0	0	191.464284599759	191.564258399885	0.0999738001264632
256442	100	390	stimuli/plant2/clover/plant_clover06.jpg         	1	5	1	plant_clover06.jpg   	plant2   	7	clover    	9	clover06    	95	alive    	1	still	0	natural 	1	n	0	0        	 	0.0	0	191.614273199812	191.714279499836	0.100006300024688
256592	100	391	stimuli/movNat/fire/mn_fire05.jpg                	1	5	1	mn_fire05.jpg        	movNat   	3	fire      	15	fire05      	154	not_alive	0	moves	1	natural 	1	n	0	0        	 	0.0	0	191.764273599721	191.864267699886	0.0999941001646221
256742	100	392	stimuli/plant2/palmtree/plant_palmtree04.jpg     	1	5	1	plant_palmtree04.jpg 	plant2   	7	palmtree  	27	palmtree04  	273	alive    	1	still	0	natural 	1	n	0	0        	 	0.0	0	191.91427689977	192.01427249983	0.0999956000596285
256892	100	393	stimuli/movArt/boat/ma_boat03.jpg                	1	5	1	ma_boat03.jpg        	movArt   	2	boat      	2	boat03      	22	not_alive	0	moves	1	artefact	0	n	0	0        	 	0.0	0	192.064285099972	192.164340999909	0.100055899936706
257042	100	394	stimuli/animals2/tiger/animal_tiger06.jpg        	1	5	1	animal_tiger06.jpg   	animals2 	1	tiger     	33	tiger06     	335	alive    	1	moves	1	natural 	1	n	0	0        	 	0.0	0	192.214308999944	192.314283299726	0.0999742997810245
257192	100	395	stimuli/plant2/palmtree/plant_palmtree03.jpg     	1	5	1	plant_palmtree03.jpg 	plant2   	7	palmtree  	27	palmtree03  	272	alive    	1	still	0	natural 	1	n	0	0        	 	0.0	0	192.364289099816	192.464281199966	0.0999921001493931
257342	100	396	stimuli/movNat/hotspring/mn_hotspring09.jpg      	1	5	1	mn_hotspring09.jpg   	movNat   	3	hotspring 	21	hotspring09 	218	not_alive	0	moves	1	natural 	1	n	0	0        	 	0.0	0	192.514292599633	192.614287499804	0.0999949001707137
257492	100	397	stimuli/nonmovArt/mug/nma_mug09.jpg              	1	5	1	nma_mug09.jpg        	nonmovArt	4	mug       	26	mug09       	268	not_alive	0	still	0	artefact	0	n	0	0        	 	0.0	0	192.664298999589	192.76430709986	0.100008100271225
257642	100	398	stimuli/animals2/tiger/animal_tiger09.jpg        	1	5	1	animal_tiger09.jpg   	animals2 	1	tiger     	33	tiger09     	338	alive    	1	moves	1	natural 	1	n	0	0        	 	0.0	0	192.814306699671	192.914297999814	0.0999913001433015
257792	100	399	stimuli/plant2/fern/plant_fern01.jpg             	1	5	1	plant_fern01.jpg     	plant2   	7	fern      	14	fern01      	140	alive    	1	still	0	natural 	1	n	0	0        	 	0.0	0	192.964320099913	193.064310899936	0.0999908000230789
261042	100	400	stimuli/plant2/moss/plant_moss08.jpg             	1	6	1	plant_moss08.jpg     	plant2   	7	moss      	25	moss08      	257	alive    	1	still	0	natural 	1	n	0	0        	 	0.0	0	196.214378200006	196.314388299827	0.100010099820793
261192	100	401	stimuli/movArt/car/ma_car04.jpg                  	1	6	1	ma_car04.jpg         	movArt   	2	car       	5	car04       	53	not_alive	0	moves	1	artefact	0	n	0	0        	 	0.0	0	196.364396399818	196.464404499624	0.100008099805564
261342	100	402	stimuli/nonmovNat/sand/nmn_sand10.jpg            	1	6	1	nmn_sand10.jpg       	nonmovNat	5	sand      	31	sand10      	319	not_alive	0	still	0	natural 	1	n	0	0        	 	0.0	0	196.514406399801	196.614395599812	0.0999892000108957
261492	100	403	stimuli/movArt/train/ma_train08.jpg              	1	6	1	ma_train08.jpg       	movArt   	2	train     	34	train08     	347	not_alive	0	moves	1	artefact	0	n	0	0        	 	0.0	0	196.66440399969	196.764399699867	0.0999957001768053
261642	100	404	stimuli/animals/eagle/animal_eagle04.jpg         	1	6	1	animal_eagle04.jpg   	animals  	0	eagle     	13	eagle04     	133	alive    	1	moves	1	natural 	1	n	0	0        	 	0.0	0	196.814407399856	196.91440150002	0.0999941001646221
261792	100	405	stimuli/animals2/whale/animal_whale10.jpg        	1	6	1	animal_whale10.jpg   	animals2 	1	whale     	39	whale10     	399	alive    	1	moves	1	natural 	1	n	0	0        	 	0.0	0	196.964395199902	197.064404299948	0.100009100046009
261942	100	406	stimuli/movNat/waterfall/mn_waterfall09.jpg      	1	6	1	mn_waterfall09.jpg   	movNat   	3	waterfall 	37	waterfall09 	378	not_alive	0	moves	1	natural 	1	n	0	0        	 	0.0	0	197.114417999983	197.214408400003	0.0999904000200331
262092	100	407	stimuli/plant/tree/plant_tree01.jpg              	1	6	1	plant_tree01.jpg     	plant    	6	tree      	35	tree01      	350	alive    	1	still	0	natural 	1	n	0	0        	 	0.0	0	197.264422599692	197.364414499607	0.0999918999150395
262242	100	408	stimuli/nonmovArt/lock/nma_lock07.jpg            	1	6	1	nma_lock07.jpg       	nonmovArt	4	lock      	24	lock07      	246	not_alive	0	still	0	artefact	0	n	0	0        	 	0.0	0	197.414423799608	197.51440359978	0.0999798001721501
262392	100	409	stimuli/animals/cat/animal_cat03.jpg             	1	6	1	animal_cat03.jpg     	animals  	0	cat       	6	cat03       	62	alive    	1	moves	1	natural 	1	n	0	0        	 	0.0	0	197.564415299799	197.664408599958	0.0999933001585305
262542	100	410	stimuli/plant/flower/plant_flower09.jpg          	1	6	1	plant_flower09.jpg   	plant    	6	flower    	16	flower09    	168	alive    	1	still	0	natural 	1	n	0	0        	 	0.0	0	197.714444999583	197.814410799649	0.0999658000655472
262692	100	411	stimuli/movNat/waves/mn_waves02.jpg              	1	6	1	mn_waves02.jpg       	movNat   	3	waves     	38	waves02     	381	not_alive	0	moves	1	natural 	1	n	0	0        	 	0.0	0	197.864427299704	197.964419399854	0.0999921001493931
262842	100	412	stimuli/nonmovArt/bench/nma_bench10.jpg          	1	6	1	nma_bench10.jpg      	nonmovArt	4	bench     	1	bench10     	19	not_alive	0	still	0	artefact	0	n	0	0        	 	0.0	0	198.014429099858	198.114433699753	0.100004599895328
