onset	duration	eventnumber	stimulus_file	blockno	trialno	is_faststream	stim	stim_category	category_number	exemplar	exemplar_number	image_name	image_number	aliveness	aliveness_bin	movement	movement_bin	naturalness	naturalness_bin	response_hand_alive	istarget	response	keypressed	rt	correct	time_stimon	time_stimoff	stimdur
34433	100	0	stimuli/nonmovArt/headphones/nma_headphones06.jpg	1	1	1	nma_headphones06.jpg 	nonmovArt	4	headphones	18	headphones06	185	not_alive	0	still	0	artefact	0	n	0	0        	 	0.0	0	63.587916199991	63.6878997000167	0.0999835000257008
34583	100	1	stimuli/animals2/pigeon/animal_pigeon10.jpg      	1	1	1	animal_pigeon10.jpg  	animals2 	1	pigeon    	28	pigeon10    	289	alive    	1	moves	1	natural 	1	n	0	0        	 	0.0	0	63.7379244000185	63.8379209999985	0.0999965999799315
34733	100	2	stimuli/nonmovNat/shell/nmn_shell02.jpg          	1	1	1	nmn_shell02.jpg      	nonmovNat	5	shell     	32	shell02     	321	not_alive	0	still	0	natural 	1	n	0	0        	 	0.0	0	63.8879336999962	63.9879042000102	0.0999705000140239
34883	100	3	stimuli/animals/dolphin/animal_dolphin08.jpg     	1	1	1	animal_dolphin08.jpg 	animals  	0	dolphin   	12	dolphin08   	127	alive    	1	moves	1	natural 	1	n	0	0        	 	0.0	0	64.0379185999918	64.1379321000131	0.100013500021305
35033	100	4	stimuli/movNat/hotspring/mn_hotspring02.jpg      	1	1	1	mn_hotspring02.jpg   	movNat   	3	hotspring 	21	hotspring02 	211	not_alive	0	moves	1	natural 	1	n	0	0        	 	0.0	0	64.187921100005	64.2879156999989	0.0999945999938063
35183	100	5	stimuli/plant2/fern/plant_fern08.jpg             	1	1	1	plant_fern08.jpg     	plant2   	7	fern      	14	fern08      	147	alive    	1	still	0	natural 	1	n	0	0        	 	0.0	0	64.3379226000106	64.4379180000105	0.0999953999998979
35333	100	6	stimuli/movArt/helicopter/ma_helicopter10.jpg    	1	1	1	ma_helicopter10.jpg  	movArt   	2	helicopter	19	helicopter10	199	not_alive	0	moves	1	artefact	0	n	0	0        	 	0.0	0	64.4879390000133	64.5879200999916	0.0999810999783222
35483	100	7	stimuli/movNat/fire/mn_fire01.jpg                	1	1	1	mn_fire01.jpg        	movNat   	3	fire      	15	fire01      	150	not_alive	0	moves	1	natural 	1	n	0	0        	 	0.0	0	64.638220199995	64.7379283999908	0.0997081999958027
35633	100	8	stimuli/animals/horse/animal_horse02.jpg         	1	1	1	animal_horse02.jpg   	animals  	0	horse     	20	horse02     	201	alive    	1	moves	1	natural 	1	n	0	0        	 	0.0	0	64.7879541000002	64.8879279000103	0.0999738000100478
35783	100	9	stimuli/nonmovNat/sand/nmn_sand03.jpg            	1	1	1	nmn_sand03.jpg       	nonmovNat	5	sand      	31	sand03      	312	not_alive	0	still	0	natural 	1	n	0	0        	 	0.0	0	64.9379370000097	65.037934699998	0.0999976999883074
35933	100	10	stimuli/nonmovArt/lock/nma_lock07.jpg            	1	1	1	nma_lock07.jpg       	nonmovArt	4	lock      	24	lock07      	246	not_alive	0	still	0	artefact	0	n	0	0        	 	0.0	0	65.0879413000075	65.1879344999907	0.099993199983146
36083	100	11	stimuli/movNat/river/mn_river03.jpg              	1	1	1	mn_river03.jpg       	movNat   	3	river     	29	river03     	292	not_alive	0	moves	1	natural 	1	n	0	0        	 	0.0	0	65.2379479999945	65.3379390999908	0.0999910999962594
36233	100	12	stimuli/animals2/lemur/animal_lemur10.jpg        	1	1	1	animal_lemur10.jpg   	animals2 	1	lemur     	23	lemur10     	239	alive    	1	moves	1	natural 	1	n	0	0        	 	0.0	0	65.3879499000032	65.4879433000169	0.0999934000137728
36383	100	13	stimuli/animals/horse/animal_horse01.jpg         	1	1	1	animal_horse01.jpg   	animals  	0	horse     	20	horse01     	200	alive    	1	moves	1	natural 	1	n	0	0        	 	0.0	0	65.5379537999979	65.6379503000062	0.0999965000082739
36533	100	14	stimuli/movArt/car/ma_car02.jpg                  	1	1	1	ma_car02.jpg         	movArt   	2	car       	5	car02       	51	not_alive	0	moves	1	artefact	0	n	0	0        	 	0.0	0	65.687954699999	65.7879681999912	0.100013499992201
36683	100	15	stimuli/plant2/palmtree/plant_palmtree07.jpg     	1	1	1	plant_palmtree07.jpg 	plant2   	7	palmtree  	27	palmtree07  	276	alive    	1	still	0	natural 	1	n	1	0        	 	0.0	0	65.8379629999981	65.9379560000089	0.099993000010727
36833	100	16	stimuli/movArt/bus/ma_bus04.jpg                  	1	1	1	ma_bus04.jpg         	movArt   	2	bus       	3	bus04       	33	not_alive	0	moves	1	artefact	0	n	0	0        	 	0.0	0	65.9879635999969	66.0879580999899	0.0999944999930449
36983	100	17	stimuli/movArt/car/ma_car10.jpg                  	1	1	1	ma_car10.jpg         	movArt   	2	car       	5	car10       	59	not_alive	0	moves	1	artefact	0	n	0	1        	f	0.392010000010487	1	66.1379679999955	66.2379668999929	0.0999988999974448
37133	100	18	stimuli/nonmovNat/cliff/nmn_cliff06.jpg          	1	1	1	nmn_cliff06.jpg      	nonmovNat	5	cliff     	7	cliff06     	75	not_alive	0	still	0	natural 	1	n	0	0        	 	0.0	0	66.2879721999925	66.3879665000131	0.0999943000206258
37283	100	19	stimuli/animals/dog/animal_dog03.jpg             	1	1	1	animal_dog03.jpg     	animals  	0	dog       	11	dog03       	112	alive    	1	moves	1	natural 	1	n	0	0        	 	0.0	0	66.4379776999995	66.537970800011	0.0999931000114884
37433	100	20	stimuli/movArt/helicopter/ma_helicopter02.jpg    	1	1	1	ma_helicopter02.jpg  	movArt   	2	helicopter	19	helicopter02	191	not_alive	0	moves	1	artefact	0	n	0	0        	 	0.0	0	66.5879772999906	66.6879724000173	0.0999951000267174
37583	100	21	stimuli/animals2/pigeon/animal_pigeon05.jpg      	1	1	1	animal_pigeon05.jpg  	animals2 	1	pigeon    	28	pigeon05    	284	alive    	1	moves	1	natural 	1	n	0	0        	 	0.0	0	66.7380106000055	66.8379794000066	0.0999688000010792
37733	100	22	stimuli/movNat/hotspring/mn_hotspring01.jpg      	1	1	1	mn_hotspring01.jpg   	movNat   	3	hotspring 	21	hotspring01 	210	not_alive	0	moves	1	natural 	1	n	0	0        	 	0.0	0	66.8879887000075	66.9879805000091	0.0999918000015896
37883	100	23	stimuli/nonmovArt/bench/nma_bench03.jpg          	1	1	1	nma_bench03.jpg      	nonmovArt	4	bench     	1	bench03     	12	not_alive	0	still	0	artefact	0	n	0	0        	 	0.0	0	67.0379936000099	67.1379832999955	0.0999896999855992
38033	100	24	stimuli/movNat/waves/mn_waves06.jpg              	1	1	1	mn_waves06.jpg       	movNat   	3	waves     	38	waves06     	385	not_alive	0	moves	1	natural 	1	n	0	0        	 	0.0	0	67.1879948000133	67.2879871000186	0.0999923000053968
38183	100	25	stimuli/nonmovNat/shell/nmn_shell08.jpg          	1	1	1	nmn_shell08.jpg      	nonmovNat	5	shell     	32	shell08     	327	not_alive	0	still	0	natural 	1	n	0	0        	 	0.0	0	67.3379989000096	67.4379963999964	0.0999974999867845
38333	100	26	stimuli/plant/flower/plant_flower09.jpg          	1	1	1	plant_flower09.jpg   	plant    	6	flower    	16	flower09    	168	alive    	1	still	0	natural 	1	n	0	0        	 	0.0	0	67.4880000000121	67.5879957000143	0.0999957000021823
38483	100	27	stimuli/animals2/bee/animal_bee09.jpg            	1	1	1	animal_bee09.jpg     	animals2 	1	bee       	0	bee09       	8	alive    	1	moves	1	natural 	1	n	0	0        	 	0.0	0	67.6380087000143	67.7379989000037	0.0999901999894064
38633	100	28	stimuli/movArt/bus/ma_bus06.jpg                  	1	1	1	ma_bus06.jpg         	movArt   	2	bus       	3	bus06       	35	not_alive	0	moves	1	artefact	0	n	0	0        	 	0.0	0	67.7880083000055	67.8880018999917	0.0999935999861918
38783	100	29	stimuli/movArt/train/ma_train06.jpg              	1	1	1	ma_train06.jpg       	movArt   	2	train     	34	train06     	345	not_alive	0	moves	1	artefact	0	n	0	0        	 	0.0	0	67.9380135000101	68.0380094000138	0.0999959000037052
38933	100	30	stimuli/movArt/helicopter/ma_helicopter07.jpg    	1	1	1	ma_helicopter07.jpg  	movArt   	2	helicopter	19	helicopter07	196	not_alive	0	moves	1	artefact	0	n	0	0        	 	0.0	0	68.0880159999942	68.1880101000133	0.0999941000191029
39083	100	31	stimuli/plant/tree/plant_tree07.jpg              	1	1	1	plant_tree07.jpg     	plant    	6	tree      	35	tree07      	356	alive    	1	still	0	natural 	1	n	0	0        	 	0.0	0	68.2380392999912	68.3380142000096	0.0999749000184238
39233	100	32	stimuli/plant/flower/plant_flower06.jpg          	1	1	1	plant_flower06.jpg   	plant    	6	flower    	16	flower06    	165	alive    	1	still	0	natural 	1	n	0	0        	 	0.0	0	68.3880248999922	68.4880188000097	0.09999390001758
39383	100	33	stimuli/plant/tree/plant_tree01.jpg              	1	1	1	plant_tree01.jpg     	plant    	6	tree      	35	tree01      	350	alive    	1	still	0	natural 	1	n	0	0        	 	0.0	0	68.5380280000099	68.638056900003	0.100028899993049
39533	100	34	stimuli/animals/cat/animal_cat07.jpg             	1	1	1	animal_cat07.jpg     	animals  	0	cat       	6	cat07       	66	alive    	1	moves	1	natural 	1	n	0	0        	 	0.0	0	68.6880622000026	68.7880425000039	0.0999803000013344
39683	100	35	stimuli/animals/cat/animal_cat10.jpg             	1	1	1	animal_cat10.jpg     	animals  	0	cat       	6	cat10       	69	alive    	1	moves	1	natural 	1	n	0	0        	 	0.0	0	68.8380692999926	68.9380454999919	0.0999761999992188
39833	100	36	stimuli/animals2/lemur/animal_lemur06.jpg        	1	1	1	animal_lemur06.jpg   	animals2 	1	lemur     	23	lemur06     	235	alive    	1	moves	1	natural 	1	n	0	0        	 	0.0	0	68.9880518999998	69.0880633000052	0.100011400005314
39983	100	37	stimuli/movArt/bus/ma_bus04.jpg                  	1	1	1	ma_bus04.jpg         	movArt   	2	bus       	3	bus04       	33	not_alive	0	moves	1	artefact	0	n	0	0        	 	0.0	0	69.1380577000091	69.2380705999967	0.100012899987632
40133	100	38	stimuli/nonmovArt/bench/nma_bench03.jpg          	1	1	1	nma_bench03.jpg      	nonmovArt	4	bench     	1	bench03     	12	not_alive	0	still	0	artefact	0	n	0	0        	 	0.0	0	69.2880626000115	69.3880691000086	0.100006499997107
40283	100	39	stimuli/plant2/clover/plant_clover10.jpg         	1	1	1	plant_clover10.jpg   	plant2   	7	clover    	9	clover10    	99	alive    	1	still	0	natural 	1	n	0	0        	 	0.0	0	69.4380818000063	69.5380729000026	0.0999910999962594
40433	100	40	stimuli/movArt/boat/ma_boat10.jpg                	1	1	1	ma_boat10.jpg        	movArt   	2	boat      	2	boat10      	29	not_alive	0	moves	1	artefact	0	n	0	0        	 	0.0	0	69.5880674000073	69.6880655999994	0.0999981999921147
40583	100	41	stimuli/plant/vine/plant_vine02.jpg              	1	1	1	plant_vine02.jpg     	plant    	6	vine      	36	vine02      	361	alive    	1	still	0	natural 	1	n	0	0        	 	0.0	0	69.7380721000081	69.8380846999935	0.100012599985348
40733	100	42	stimuli/nonmovNat/cliff/nmn_cliff02.jpg          	1	1	1	nmn_cliff02.jpg      	nonmovNat	5	cliff     	7	cliff02     	71	not_alive	0	still	0	natural 	1	n	0	0        	 	0.0	0	69.8880914000038	69.9880838000099	0.0999924000061583
40883	100	43	stimuli/movArt/train/ma_train07.jpg              	1	1	1	ma_train07.jpg       	movArt   	2	train     	34	train07     	346	not_alive	0	moves	1	artefact	0	n	0	0        	 	0.0	0	70.0380803000007	70.1380895000184	0.100009200017666
41033	100	44	stimuli/plant2/palmtree/plant_palmtree09.jpg     	1	1	1	plant_palmtree09.jpg 	plant2   	7	palmtree  	27	palmtree09  	278	alive    	1	still	0	natural 	1	n	0	0        	 	0.0	0	70.1880995999963	70.288093900017	0.0999943000206258
41183	100	45	stimuli/nonmovArt/mug/nma_mug10.jpg              	1	1	1	nma_mug10.jpg        	nonmovArt	4	mug       	26	mug10       	269	not_alive	0	still	0	artefact	0	n	0	0        	 	0.0	0	70.3381021000096	70.4381251000159	0.100023000006331
41333	100	46	stimuli/animals/dolphin/animal_dolphin10.jpg     	1	1	1	animal_dolphin10.jpg 	animals  	0	dolphin   	12	dolphin10   	129	alive    	1	moves	1	natural 	1	n	0	0        	 	0.0	0	70.4880905000027	70.5880772999953	0.0999867999926209
41483	100	47	stimuli/nonmovArt/mug/nma_mug03.jpg              	1	1	1	nma_mug03.jpg        	nonmovArt	4	mug       	26	mug03       	262	not_alive	0	still	0	artefact	0	n	0	0        	 	0.0	0	70.6381126999913	70.7381043999922	0.0999917000008281
41633	100	48	stimuli/animals/dolphin/animal_dolphin04.jpg     	1	1	1	animal_dolphin04.jpg 	animals  	0	dolphin   	12	dolphin04   	123	alive    	1	moves	1	natural 	1	n	0	0        	 	0.0	0	70.7880977000168	70.8881103000022	0.100012599985348
41783	100	49	stimuli/nonmovNat/sand/nmn_sand02.jpg            	1	1	1	nmn_sand02.jpg       	nonmovNat	5	sand      	31	sand02      	311	not_alive	0	still	0	natural 	1	n	0	0        	 	0.0	0	70.9381225999969	71.0381122000108	0.0999896000139415
41933	100	50	stimuli/nonmovArt/clothespeg/nma_clothespeg03.jpg	1	1	1	nma_clothespeg03.jpg 	nonmovArt	4	clothespeg	8	clothespeg03	82	not_alive	0	still	0	artefact	0	n	0	0        	 	0.0	0	71.0881207000057	71.1881149999972	0.099994299991522
42083	100	51	stimuli/movNat/waves/mn_waves10.jpg              	1	1	1	mn_waves10.jpg       	movNat   	3	waves     	38	waves10     	389	not_alive	0	moves	1	natural 	1	n	0	0        	 	0.0	0	71.2381249000027	71.3381437000062	0.100018800003454
42233	100	52	stimuli/nonmovNat/rock/nmn_rock01.jpg            	1	1	1	nmn_rock01.jpg       	nonmovNat	5	rock      	30	rock01      	300	not_alive	0	still	0	natural 	1	n	1	0        	 	0.0	0	71.3881323999958	71.4881235999928	0.0999911999970209
42383	100	53	stimuli/plant/cactus/plant_cactus06.jpg          	1	1	1	plant_cactus06.jpg   	plant    	6	cactus    	4	cactus06    	45	alive    	1	still	0	natural 	1	n	1	0        	 	0.0	0	71.5381172999914	71.6381276000175	0.100010300026042
42533	100	54	stimuli/movNat/waterfall/mn_waterfall03.jpg      	1	1	1	mn_waterfall03.jpg   	movNat   	3	waterfall 	37	waterfall03 	372	not_alive	0	moves	1	natural 	1	n	0	1        	f	0.242014400020707	1	71.6881417999976	71.7881147000007	0.0999729000031948
42683	100	55	stimuli/nonmovNat/sand/nmn_sand02.jpg            	1	1	1	nmn_sand02.jpg       	nonmovNat	5	sand      	31	sand02      	311	not_alive	0	still	0	natural 	1	n	0	0        	 	0.0	0	71.8381410000147	71.9381179999909	0.0999769999762066
42833	100	56	stimuli/animals2/lemur/animal_lemur09.jpg        	1	1	1	animal_lemur09.jpg   	animals2 	1	lemur     	23	lemur09     	238	alive    	1	moves	1	natural 	1	n	0	0        	 	0.0	0	71.9881213000044	72.088115999999	0.0999946999945678
42983	100	57	stimuli/plant2/clover/plant_clover02.jpg         	1	1	1	plant_clover02.jpg   	plant2   	7	clover    	9	clover02    	91	alive    	1	still	0	natural 	1	n	0	0        	 	0.0	0	72.1381086000183	72.2381513	0.100042699981714
43133	100	58	stimuli/nonmovNat/rock/nmn_rock03.jpg            	1	1	1	nmn_rock03.jpg       	nonmovNat	5	rock      	30	rock03      	302	not_alive	0	still	0	natural 	1	n	0	0        	 	0.0	0	72.2881293999963	72.3881235000153	0.0999941000191029
43283	100	59	stimuli/movNat/waterfall/mn_waterfall09.jpg      	1	1	1	mn_waterfall09.jpg   	movNat   	3	waterfall 	37	waterfall09 	378	not_alive	0	moves	1	natural 	1	n	1	0        	 	0.0	0	72.4381360000116	72.5381365999929	0.100000599981286
43433	100	60	stimuli/plant2/moss/plant_moss02.jpg             	1	1	1	plant_moss02.jpg     	plant2   	7	moss      	25	moss02      	251	alive    	1	still	0	natural 	1	n	0	0        	 	0.0	0	72.5881292000122	72.6881227999984	0.0999935999861918
43583	100	61	stimuli/nonmovNat/crystal/nmn_crystal04.jpg      	1	1	1	nmn_crystal04.jpg    	nonmovNat	5	crystal   	10	crystal04   	103	not_alive	0	still	0	natural 	1	n	0	0        	 	0.0	0	72.7381337000115	72.8381300999899	0.0999963999784086
43733	100	62	stimuli/animals2/tiger/animal_tiger09.jpg        	1	1	1	animal_tiger09.jpg   	animals2 	1	tiger     	33	tiger09     	338	alive    	1	moves	1	natural 	1	n	0	0        	 	0.0	0	72.8881374000048	72.988130999991	0.0999935999861918
43883	100	63	stimuli/animals/cat/animal_cat03.jpg             	1	1	1	animal_cat03.jpg     	animals  	0	cat       	6	cat03       	62	alive    	1	moves	1	natural 	1	n	0	0        	 	0.0	0	73.0381443999941	73.138131899992	0.0999874999979511
44033	100	64	stimuli/plant2/lemontree/plant_lemontree04.jpg   	1	1	1	plant_lemontree04.jpg	plant2   	7	lemontree 	22	lemontree04 	223	alive    	1	still	0	natural 	1	n	0	0        	 	0.0	0	73.1881445000181	73.2881418000034	0.0999972999852616
44183	100	65	stimuli/plant/grass/plant_grass10.jpg            	1	1	1	plant_grass10.jpg    	plant    	6	grass     	17	grass10     	179	alive    	1	still	0	natural 	1	n	0	0        	 	0.0	0	73.3381706000073	73.4381728000008	0.100002199993469
44333	100	66	stimuli/nonmovArt/mug/nma_mug06.jpg              	1	1	1	nma_mug06.jpg        	nonmovArt	4	mug       	26	mug06       	265	not_alive	0	still	0	artefact	0	n	0	0        	 	0.0	0	73.4881600000081	73.588153699995	0.0999936999869533
44483	100	67	stimuli/nonmovNat/crystal/nmn_crystal03.jpg      	1	1	1	nmn_crystal03.jpg    	nonmovNat	5	crystal   	10	crystal03   	102	not_alive	0	still	0	natural 	1	n	0	0        	 	0.0	0	73.6381590999954	73.7381507999962	0.0999917000008281
44633	100	68	stimuli/animals2/whale/animal_whale05.jpg        	1	1	1	animal_whale05.jpg   	animals2 	1	whale     	39	whale05     	394	alive    	1	moves	1	natural 	1	n	0	0        	 	0.0	0	73.7881597999949	73.8881527000049	0.0999929000099655
44783	100	69	stimuli/movNat/waves/mn_waves04.jpg              	1	1	1	mn_waves04.jpg       	movNat   	3	waves     	38	waves04     	383	not_alive	0	moves	1	natural 	1	n	0	0        	 	0.0	0	73.9381661000079	74.0381607000018	0.0999945999938063
44933	100	70	stimuli/animals/eagle/animal_eagle04.jpg         	1	1	1	animal_eagle04.jpg   	animals  	0	eagle     	13	eagle04     	133	alive    	1	moves	1	natural 	1	n	0	0        	 	0.0	0	74.088165299996	74.1881598999898	0.0999945999938063
45083	100	71	stimuli/nonmovArt/clothespeg/nma_clothespeg06.jpg	1	1	1	nma_clothespeg06.jpg 	nonmovArt	4	clothespeg	8	clothespeg06	85	not_alive	0	still	0	artefact	0	n	0	0        	 	0.0	0	74.2381723000144	74.3381644000183	0.0999921000038739
45233	100	72	stimuli/animals/horse/animal_horse01.jpg         	1	1	1	animal_horse01.jpg   	animals  	0	horse     	20	horse01     	200	alive    	1	moves	1	natural 	1	n	0	0        	 	0.0	0	74.3881754000031	74.4881671000039	0.0999917000008281
45383	100	73	stimuli/plant/vine/plant_vine07.jpg              	1	1	1	plant_vine07.jpg     	plant    	6	vine      	36	vine07      	366	alive    	1	still	0	natural 	1	n	0	0        	 	0.0	0	74.5381784999918	74.6381907000032	0.100012200011406
45533	100	74	stimuli/animals/dog/animal_dog07.jpg             	1	1	1	animal_dog07.jpg     	animals  	0	dog       	11	dog07       	116	alive    	1	moves	1	natural 	1	n	0	0        	 	0.0	0	74.6882138999936	74.7882072000066	0.0999933000130113
45683	100	75	stimuli/plant/vine/plant_vine10.jpg              	1	1	1	plant_vine10.jpg     	plant    	6	vine      	36	vine10      	369	alive    	1	still	0	natural 	1	n	0	0        	 	0.0	0	74.8382024000166	74.9382090000145	0.100006599997869
45833	100	76	stimuli/animals/eagle/animal_eagle01.jpg         	1	1	1	animal_eagle01.jpg   	animals  	0	eagle     	13	eagle01     	130	alive    	1	moves	1	natural 	1	n	0	0        	 	0.0	0	74.9882175000093	75.0882147999946	0.0999972999852616
45983	100	77	stimuli/plant2/clover/plant_clover06.jpg         	1	1	1	plant_clover06.jpg   	plant2   	7	clover    	9	clover06    	95	alive    	1	still	0	natural 	1	n	0	0        	 	0.0	0	75.13822600001	75.2382038999931	0.0999778999830596
46133	100	78	stimuli/plant2/fern/plant_fern08.jpg             	1	1	1	plant_fern08.jpg     	plant2   	7	fern      	14	fern08      	147	alive    	1	still	0	natural 	1	n	0	0        	 	0.0	0	75.2882300000056	75.3882213000034	0.0999912999977823
46283	100	79	stimuli/nonmovArt/bench/nma_bench04.jpg          	1	1	1	nma_bench04.jpg      	nonmovArt	4	bench     	1	bench04     	13	not_alive	0	still	0	artefact	0	n	0	0        	 	0.0	0	75.4382163000118	75.5382291999995	0.100012899987632
48900	100	80	stimuli/plant/tree/plant_tree07.jpg              	1	2	1	plant_tree07.jpg     	plant    	6	tree      	35	tree07      	356	alive    	1	still	0	natural 	1	n	0	0        	 	0.0	0	78.0549462999916	78.1549354000017	0.0999891000101343
49050	100	81	stimuli/movArt/train/ma_train09.jpg              	1	2	1	ma_train09.jpg       	movArt   	2	train     	34	train09     	348	not_alive	0	moves	1	artefact	0	n	0	0        	 	0.0	0	78.2049456000095	78.3049422000186	0.0999966000090353
49200	100	82	stimuli/animals2/bee/animal_bee02.jpg            	1	2	1	animal_bee02.jpg     	animals2 	1	bee       	0	bee02       	1	alive    	1	moves	1	natural 	1	n	0	0        	 	0.0	0	78.3549516999919	78.4549482000002	0.0999965000082739
49350	100	83	stimuli/movNat/river/mn_river06.jpg              	1	2	1	mn_river06.jpg       	movNat   	3	river     	29	river06     	295	not_alive	0	moves	1	natural 	1	n	0	0        	 	0.0	0	78.5049534999998	78.6049473000167	0.0999938000168186
49500	100	84	stimuli/plant/flower/plant_flower03.jpg          	1	2	1	plant_flower03.jpg   	plant    	6	flower    	16	flower03    	162	alive    	1	still	0	natural 	1	n	0	0        	 	0.0	0	78.6549582000007	78.7549520000175	0.0999938000168186
49650	100	85	stimuli/nonmovNat/cliff/nmn_cliff06.jpg          	1	2	1	nmn_cliff06.jpg      	nonmovNat	5	cliff     	7	cliff06     	75	not_alive	0	still	0	natural 	1	n	0	0        	 	0.0	0	78.8049614999909	78.9049586000037	0.0999971000128426
49800	100	86	stimuli/animals2/tiger/animal_tiger02.jpg        	1	2	1	animal_tiger02.jpg   	animals2 	1	tiger     	33	tiger02     	331	alive    	1	moves	1	natural 	1	n	0	0        	 	0.0	0	78.9549685000093	79.0549744000018	0.100005899992539
49950	100	87	stimuli/animals2/whale/animal_whale01.jpg        	1	2	1	animal_whale01.jpg   	animals2 	1	whale     	39	whale01     	390	alive    	1	moves	1	natural 	1	n	0	0        	 	0.0	0	79.1049683000019	79.2049642000056	0.0999959000037052
50100	100	88	stimuli/movNat/river/mn_river06.jpg              	1	2	1	mn_river06.jpg       	movNat   	3	river     	29	river06     	295	not_alive	0	moves	1	natural 	1	n	0	0        	 	0.0	0	79.2549741000112	79.3549657000112	0.0999916000000667
50250	100	89	stimuli/animals/dog/animal_dog04.jpg             	1	2	1	animal_dog04.jpg     	animals  	0	dog       	11	dog04       	113	alive    	1	moves	1	natural 	1	n	0	0        	 	0.0	0	79.4049775000021	79.504969600006	0.0999921000038739
50400	100	90	stimuli/plant/grass/plant_grass07.jpg            	1	2	1	plant_grass07.jpg    	plant    	6	grass     	17	grass07     	176	alive    	1	still	0	natural 	1	n	0	0        	 	0.0	0	79.5549810999946	79.6549747000099	0.0999936000152957
50550	100	91	stimuli/plant/grass/plant_grass01.jpg            	1	2	1	plant_grass01.jpg    	plant    	6	grass     	17	grass01     	170	alive    	1	still	0	natural 	1	n	0	0        	 	0.0	0	79.7049812999903	79.804973499995	0.0999922000046354
50700	100	92	stimuli/nonmovArt/lock/nma_lock06.jpg            	1	2	1	nma_lock06.jpg       	nonmovArt	4	lock      	24	lock06      	245	not_alive	0	still	0	artefact	0	n	0	0        	 	0.0	0	79.8549819000182	79.9550194000185	0.100037500000326
50850	100	93	stimuli/animals/eagle/animal_eagle03.jpg         	1	2	1	animal_eagle03.jpg   	animals  	0	eagle     	13	eagle03     	132	alive    	1	moves	1	natural 	1	n	0	0        	 	0.0	0	80.0049855000106	80.1049792999984	0.0999937999877147
51000	100	94	stimuli/nonmovArt/headphones/nma_headphones04.jpg	1	2	1	nma_headphones04.jpg 	nonmovArt	4	headphones	18	headphones04	183	not_alive	0	still	0	artefact	0	n	0	0        	 	0.0	0	80.1549899000092	80.2549831999931	0.0999932999839075
51150	100	95	stimuli/animals2/pigeon/animal_pigeon04.jpg      	1	2	1	animal_pigeon04.jpg  	animals2 	1	pigeon    	28	pigeon04    	283	alive    	1	moves	1	natural 	1	n	0	0        	 	0.0	0	80.304993400001	80.4049859000079	0.0999925000069197
51300	100	96	stimuli/plant2/moss/plant_moss08.jpg             	1	2	1	plant_moss08.jpg     	plant2   	7	moss      	25	moss08      	257	alive    	1	still	0	natural 	1	n	0	0        	 	0.0	0	80.4549972999957	80.5550189999922	0.100021699996432
51450	100	97	stimuli/plant2/fern/plant_fern09.jpg             	1	2	1	plant_fern09.jpg     	plant2   	7	fern      	14	fern09      	148	alive    	1	still	0	natural 	1	n	0	0        	 	0.0	0	80.6050005000143	80.7050283999997	0.100027899985434
51600	100	98	stimuli/animals2/tiger/animal_tiger06.jpg        	1	2	1	animal_tiger06.jpg   	animals2 	1	tiger     	33	tiger06     	335	alive    	1	moves	1	natural 	1	n	0	0        	 	0.0	0	80.7550052000151	80.8549987000006	0.0999934999854304
51750	100	99	stimuli/nonmovArt/lock/nma_lock02.jpg            	1	2	1	nma_lock02.jpg       	nonmovArt	4	lock      	24	lock02      	241	not_alive	0	still	0	artefact	0	n	1	0        	 	0.0	0	80.9050067999924	81.0050017000176	0.0999949000251945
51900	100	100	stimuli/plant2/palmtree/plant_palmtree06.jpg     	1	2	1	plant_palmtree06.jpg 	plant2   	7	palmtree  	27	palmtree06  	275	alive    	1	still	0	natural 	1	n	0	0        	 	0.0	0	81.0550333000137	81.1550036999979	0.0999703999841586
52050	100	101	stimuli/nonmovArt/clothespeg/nma_clothespeg08.jpg	1	2	1	nma_clothespeg08.jpg 	nonmovArt	4	clothespeg	8	clothespeg08	87	not_alive	0	still	0	artefact	0	n	0	1        	f	0.3001999000262	1	81.2050158999918	81.3050118999963	0.0999960000044666
52200	100	102	stimuli/nonmovNat/shell/nmn_shell01.jpg          	1	2	1	nmn_shell01.jpg      	nonmovNat	5	shell     	32	shell01     	320	not_alive	0	still	0	natural 	1	n	0	0        	 	0.0	0	81.3550321999937	81.4550280999974	0.0999959000037052
52350	100	103	stimuli/plant2/lemontree/plant_lemontree09.jpg   	1	2	1	plant_lemontree09.jpg	plant2   	7	lemontree 	22	lemontree09 	228	alive    	1	still	0	natural 	1	n	0	0        	 	0.0	0	81.5050232000067	81.6050192000112	0.0999960000044666
52500	100	104	stimuli/nonmovNat/crystal/nmn_crystal10.jpg      	1	2	1	nmn_crystal10.jpg    	nonmovNat	5	crystal   	10	crystal10   	109	not_alive	0	still	0	natural 	1	n	0	0        	 	0.0	0	81.6550278000068	81.7550200000114	0.0999922000046354
52650	100	105	stimuli/movArt/boat/ma_boat10.jpg                	1	2	1	ma_boat10.jpg        	movArt   	2	boat      	2	boat10      	29	not_alive	0	moves	1	artefact	0	n	0	0        	 	0.0	0	81.8050592000072	81.9050246000115	0.0999654000042938
52800	100	106	stimuli/nonmovNat/rock/nmn_rock07.jpg            	1	2	1	nmn_rock07.jpg       	nonmovNat	5	rock      	30	rock07      	306	not_alive	0	still	0	natural 	1	n	0	0        	 	0.0	0	81.9550342000148	82.0550410000142	0.100006799999392
52950	100	107	stimuli/movNat/hotspring/mn_hotspring02.jpg      	1	2	1	mn_hotspring02.jpg   	movNat   	3	hotspring 	21	hotspring02 	211	not_alive	0	moves	1	natural 	1	n	0	0        	 	0.0	0	82.1050384000118	82.2050300000119	0.0999916000000667
53100	100	108	stimuli/movArt/boat/ma_boat07.jpg                	1	2	1	ma_boat07.jpg        	movArt   	2	boat      	2	boat07      	26	not_alive	0	moves	1	artefact	0	n	0	0        	 	0.0	0	82.2550430000119	82.3550546999904	0.100011699978495
53250	100	109	stimuli/movNat/fire/mn_fire04.jpg                	1	2	1	mn_fire04.jpg        	movNat   	3	fire      	15	fire04      	153	not_alive	0	moves	1	natural 	1	n	0	0        	 	0.0	0	82.4050515000126	82.5050580000097	0.100006499997107
53400	100	110	stimuli/movArt/car/ma_car10.jpg                  	1	2	1	ma_car10.jpg         	movArt   	2	car       	5	car10       	59	not_alive	0	moves	1	artefact	0	n	0	0        	 	0.0	0	82.555079600017	82.6550445000176	0.0999649000004865
53550	100	111	stimuli/plant2/moss/plant_moss10.jpg             	1	2	1	plant_moss10.jpg     	plant2   	7	moss      	25	moss10      	259	alive    	1	still	0	natural 	1	n	0	0        	 	0.0	0	82.7050554000016	82.8050463999971	0.099990999995498
53700	100	112	stimuli/movNat/waterfall/mn_waterfall06.jpg      	1	2	1	mn_waterfall06.jpg   	movNat   	3	waterfall 	37	waterfall06 	375	not_alive	0	moves	1	natural 	1	n	0	0        	 	0.0	0	82.8550816999923	82.9550512999995	0.0999696000071708
53850	100	113	stimuli/nonmovArt/headphones/nma_headphones09.jpg	1	2	1	nma_headphones09.jpg 	nonmovArt	4	headphones	18	headphones09	188	not_alive	0	still	0	artefact	0	n	0	0        	 	0.0	0	83.0050598999951	83.1050558999996	0.0999960000044666
54000	100	114	stimuli/plant2/lemontree/plant_lemontree02.jpg   	1	2	1	plant_lemontree02.jpg	plant2   	7	lemontree 	22	lemontree02 	221	alive    	1	still	0	natural 	1	n	0	0        	 	0.0	0	83.1550694000034	83.2550597999943	0.0999903999909293
54150	100	115	stimuli/movNat/fire/mn_fire03.jpg                	1	2	1	mn_fire03.jpg        	movNat   	3	fire      	15	fire03      	152	not_alive	0	moves	1	natural 	1	n	0	0        	 	0.0	0	83.3050834000169	83.4050752999901	0.0999918999732472
54300	100	116	stimuli/plant/cactus/plant_cactus10.jpg          	1	2	1	plant_cactus10.jpg   	plant    	6	cactus    	4	cactus10    	49	alive    	1	still	0	natural 	1	n	0	0        	 	0.0	0	83.4550792000082	83.5550743000058	0.0999950999976136
54450	100	117	stimuli/animals2/bee/animal_bee01.jpg            	1	2	1	animal_bee01.jpg     	animals2 	1	bee       	0	bee01       	0	alive    	1	moves	1	natural 	1	n	0	0        	 	0.0	0	83.6050841000106	83.7050725000154	0.0999884000048041
54600	100	118	stimuli/plant/cactus/plant_cactus01.jpg          	1	2	1	plant_cactus01.jpg   	plant    	6	cactus    	4	cactus01    	40	alive    	1	still	0	natural 	1	n	0	0        	 	0.0	0	83.7550846000086	83.8550762000086	0.0999916000000667
54750	100	119	stimuli/animals2/whale/animal_whale03.jpg        	1	2	1	animal_whale03.jpg   	animals2 	1	whale     	39	whale03     	392	alive    	1	moves	1	natural 	1	n	0	0        	 	0.0	0	83.9050868999912	84.005078599992	0.0999917000008281
54900	100	120	stimuli/animals2/tiger/animal_tiger07.jpg        	1	2	1	animal_tiger07.jpg   	animals2 	1	tiger     	33	tiger07     	336	alive    	1	moves	1	natural 	1	n	0	0        	 	0.0	0	84.0550883999967	84.1550828000181	0.0999944000213873
55050	100	121	stimuli/animals2/pigeon/animal_pigeon09.jpg      	1	2	1	animal_pigeon09.jpg  	animals2 	1	pigeon    	28	pigeon09    	288	alive    	1	moves	1	natural 	1	n	0	0        	 	0.0	0	84.2050919000176	84.3050881999952	0.0999962999776471
55200	100	122	stimuli/movNat/waterfall/mn_waterfall02.jpg      	1	2	1	mn_waterfall02.jpg   	movNat   	3	waterfall 	37	waterfall02 	371	not_alive	0	moves	1	natural 	1	n	0	0        	 	0.0	0	84.3550974999962	84.4550953000144	0.0999978000181727
55350	100	123	stimuli/animals2/whale/animal_whale03.jpg        	1	2	1	animal_whale03.jpg   	animals2 	1	whale     	39	whale03     	392	alive    	1	moves	1	natural 	1	n	0	0        	 	0.0	0	84.5051077000098	84.605098400003	0.0999906999932136
55500	100	124	stimuli/animals2/whale/animal_whale09.jpg        	1	2	1	animal_whale09.jpg   	animals2 	1	whale     	39	whale09     	398	alive    	1	moves	1	natural 	1	n	0	0        	 	0.0	0	84.6551083000086	84.7551183000032	0.100009999994654
55650	100	125	stimuli/animals/dog/animal_dog09.jpg             	1	2	1	animal_dog09.jpg     	animals  	0	dog       	11	dog09       	118	alive    	1	moves	1	natural 	1	n	0	0        	 	0.0	0	84.8051102000172	84.9050988999952	0.0999886999779846
55800	100	126	stimuli/nonmovArt/bench/nma_bench05.jpg          	1	2	1	nma_bench05.jpg      	nonmovArt	4	bench     	1	bench05     	14	not_alive	0	still	0	artefact	0	n	0	0        	 	0.0	0	84.9551090000023	85.0551442000142	0.100035200011916
55950	100	127	stimuli/movNat/fire/mn_fire04.jpg                	1	2	1	mn_fire04.jpg        	movNat   	3	fire      	15	fire04      	153	not_alive	0	moves	1	natural 	1	n	0	0        	 	0.0	0	85.105137800012	85.2051263000176	0.0999885000055656
56100	100	128	stimuli/movNat/fire/mn_fire07.jpg                	1	2	1	mn_fire07.jpg        	movNat   	3	fire      	15	fire07      	156	not_alive	0	moves	1	natural 	1	n	0	0        	 	0.0	0	85.25512419999	85.355131999997	0.100007800007006
56250	100	129	stimuli/animals2/whale/animal_whale05.jpg        	1	2	1	animal_whale05.jpg   	animals2 	1	whale     	39	whale05     	394	alive    	1	moves	1	natural 	1	n	0	0        	 	0.0	0	85.4051225000003	85.5051629999943	0.100040499994066
56400	100	130	stimuli/nonmovArt/clothespeg/nma_clothespeg07.jpg	1	2	1	nma_clothespeg07.jpg 	nonmovArt	4	clothespeg	8	clothespeg07	86	not_alive	0	still	0	artefact	0	n	0	0        	 	0.0	0	85.555125200015	85.6551200000104	0.0999947999953292
56550	100	131	stimuli/nonmovArt/lock/nma_lock08.jpg            	1	2	1	nma_lock08.jpg       	nonmovArt	4	lock      	24	lock08      	247	not_alive	0	still	0	artefact	0	n	0	0        	 	0.0	0	85.7051293000113	85.8051240000059	0.0999946999945678
56700	100	132	stimuli/movArt/bus/ma_bus08.jpg                  	1	2	1	ma_bus08.jpg         	movArt   	2	bus       	3	bus08       	37	not_alive	0	moves	1	artefact	0	n	0	0        	 	0.0	0	85.8551326000015	85.9551277999999	0.099995199998375
56850	100	133	stimuli/animals2/lemur/animal_lemur01.jpg        	1	2	1	animal_lemur01.jpg   	animals2 	1	lemur     	23	lemur01     	230	alive    	1	moves	1	natural 	1	n	0	0        	 	0.0	0	86.0051373000024	86.1051330000046	0.0999957000021823
57000	100	134	stimuli/movNat/river/mn_river01.jpg              	1	2	1	mn_river01.jpg       	movNat   	3	river     	29	river01     	290	not_alive	0	moves	1	natural 	1	n	0	0        	 	0.0	0	86.1551418000017	86.2551658000157	0.100024000013946
57150	100	135	stimuli/animals/eagle/animal_eagle07.jpg         	1	2	1	animal_eagle07.jpg   	animals  	0	eagle     	13	eagle07     	136	alive    	1	moves	1	natural 	1	n	1	0        	 	0.0	0	86.3051445000165	86.4051362000173	0.0999917000008281
57300	100	136	stimuli/nonmovArt/clothespeg/nma_clothespeg02.jpg	1	2	1	nma_clothespeg02.jpg 	nonmovArt	4	clothespeg	8	clothespeg02	81	not_alive	0	still	0	artefact	0	n	1	0        	 	0.0	0	86.4551511000027	86.5551441000134	0.099993000010727
57450	100	137	stimuli/plant/grass/plant_grass05.jpg            	1	2	1	plant_grass05.jpg    	plant    	6	grass     	17	grass05     	174	alive    	1	still	0	natural 	1	n	0	1        	f	0.242036100011319	1	86.6051617999911	86.7051493000181	0.0999875000270549
57600	100	138	stimuli/movNat/river/mn_river05.jpg              	1	2	1	mn_river05.jpg       	movNat   	3	river     	29	river05     	294	not_alive	0	moves	1	natural 	1	n	1	0        	 	0.0	0	86.7551536000101	86.8551509999961	0.0999973999860231
57750	100	139	stimuli/plant/vine/plant_vine07.jpg              	1	2	1	plant_vine07.jpg     	plant    	6	vine      	36	vine07      	366	alive    	1	still	0	natural 	1	n	0	0        	 	0.0	0	86.9051593999902	87.0051657000149	0.100006300024688
57900	100	140	stimuli/plant2/moss/plant_moss08.jpg             	1	2	1	plant_moss08.jpg     	plant2   	7	moss      	25	moss08      	257	alive    	1	still	0	natural 	1	n	0	0        	 	0.0	0	87.0551817000087	87.1551559999934	0.0999742999847513
58050	100	141	stimuli/plant/flower/plant_flower04.jpg          	1	2	1	plant_flower04.jpg   	plant    	6	flower    	16	flower04    	163	alive    	1	still	0	natural 	1	n	0	0        	 	0.0	0	87.2051682000165	87.3051629000111	0.0999946999945678
58200	100	142	stimuli/movNat/waves/mn_waves07.jpg              	1	2	1	mn_waves07.jpg       	movNat   	3	waves     	38	waves07     	386	not_alive	0	moves	1	natural 	1	n	0	0        	 	0.0	0	87.3552010999993	87.4551652999944	0.0999641999951564
58350	100	143	stimuli/animals2/tiger/animal_tiger04.jpg        	1	2	1	animal_tiger04.jpg   	animals2 	1	tiger     	33	tiger04     	333	alive    	1	moves	1	natural 	1	n	0	0        	 	0.0	0	87.5051767000114	87.6051797000109	0.10000299999956
58500	100	144	stimuli/plant2/palmtree/plant_palmtree06.jpg     	1	2	1	plant_palmtree06.jpg 	plant2   	7	palmtree  	27	palmtree06  	275	alive    	1	still	0	natural 	1	n	0	0        	 	0.0	0	87.6551779000147	87.7551718000032	0.0999938999884762
58650	100	145	stimuli/plant2/clover/plant_clover06.jpg         	1	2	1	plant_clover06.jpg   	plant2   	7	clover    	9	clover06    	95	alive    	1	still	0	natural 	1	n	0	0        	 	0.0	0	87.8051834999933	87.9051739000133	0.0999904000200331
58800	100	146	stimuli/movNat/hotspring/mn_hotspring07.jpg      	1	2	1	mn_hotspring07.jpg   	movNat   	3	hotspring 	21	hotspring07 	216	not_alive	0	moves	1	natural 	1	n	0	0        	 	0.0	0	87.9552005000005	88.0551786000142	0.0999781000136863
58950	100	147	stimuli/nonmovNat/cliff/nmn_cliff06.jpg          	1	2	1	nmn_cliff06.jpg      	nonmovNat	5	cliff     	7	cliff06     	75	not_alive	0	still	0	natural 	1	n	0	0        	 	0.0	0	88.1052367000084	88.2051835000166	0.0999468000081834
59100	100	148	stimuli/movArt/bus/ma_bus05.jpg                  	1	2	1	ma_bus05.jpg         	movArt   	2	bus       	3	bus05       	34	not_alive	0	moves	1	artefact	0	n	0	0        	 	0.0	0	88.2551972999936	88.3551866000052	0.0999893000116572
59250	100	149	stimuli/movArt/train/ma_train06.jpg              	1	2	1	ma_train06.jpg       	movArt   	2	train     	34	train06     	345	not_alive	0	moves	1	artefact	0	n	0	0        	 	0.0	0	88.4051965000108	88.5051909000031	0.0999943999922834
59400	100	150	stimuli/movArt/car/ma_car04.jpg                  	1	2	1	ma_car04.jpg         	movArt   	2	car       	5	car04       	53	not_alive	0	moves	1	artefact	0	n	0	0        	 	0.0	0	88.5552012000117	88.6551958000055	0.0999945999938063
59550	100	151	stimuli/nonmovArt/headphones/nma_headphones04.jpg	1	2	1	nma_headphones04.jpg 	nonmovArt	4	headphones	18	headphones04	183	not_alive	0	still	0	artefact	0	n	0	0        	 	0.0	0	88.7052052000072	88.8051980000164	0.0999928000092041
59700	100	152	stimuli/animals/horse/animal_horse01.jpg         	1	2	1	animal_horse01.jpg   	animals  	0	horse     	20	horse01     	200	alive    	1	moves	1	natural 	1	n	0	0        	 	0.0	0	88.8552219000121	88.9552054000087	0.099983499996597
59850	100	153	stimuli/nonmovArt/lock/nma_lock03.jpg            	1	2	1	nma_lock03.jpg       	nonmovArt	4	lock      	24	lock03      	242	not_alive	0	still	0	artefact	0	n	0	0        	 	0.0	0	89.0052155000158	89.1052087999997	0.0999932999839075
60000	100	154	stimuli/movArt/helicopter/ma_helicopter04.jpg    	1	2	1	ma_helicopter04.jpg  	movArt   	2	helicopter	19	helicopter04	193	not_alive	0	moves	1	artefact	0	n	0	0        	 	0.0	0	89.1552351000137	89.2552078000153	0.0999727000016719
60150	100	155	stimuli/movNat/fire/mn_fire10.jpg                	1	2	1	mn_fire10.jpg        	movNat   	3	fire      	15	fire10      	159	not_alive	0	moves	1	natural 	1	n	0	0        	 	0.0	0	89.3052180999948	89.4052125000162	0.0999944000213873
60300	100	156	stimuli/plant2/clover/plant_clover07.jpg         	1	2	1	plant_clover07.jpg   	plant2   	7	clover    	9	clover07    	96	alive    	1	still	0	natural 	1	n	0	0        	 	0.0	0	89.455223500001	89.5552174999902	0.0999939999892376
60450	100	157	stimuli/movNat/river/mn_river09.jpg              	1	2	1	mn_river09.jpg       	movNat   	3	river     	29	river09     	298	not_alive	0	moves	1	natural 	1	n	0	0        	 	0.0	0	89.6052245000028	89.7052225999942	0.0999980999913532
60600	100	158	stimuli/plant2/clover/plant_clover03.jpg         	1	2	1	plant_clover03.jpg   	plant2   	7	clover    	9	clover03    	92	alive    	1	still	0	natural 	1	n	0	0        	 	0.0	0	89.7552329000027	89.8552237999975	0.0999908999947365
60750	100	159	stimuli/animals/dolphin/animal_dolphin01.jpg     	1	2	1	animal_dolphin01.jpg 	animals  	0	dolphin   	12	dolphin01   	120	alive    	1	moves	1	natural 	1	n	0	0        	 	0.0	0	89.9052353000152	90.0052280999953	0.0999927999801002
63050	100	160	stimuli/nonmovNat/cliff/nmn_cliff04.jpg          	1	3	1	nmn_cliff04.jpg      	nonmovNat	5	cliff     	7	cliff04     	73	not_alive	0	still	0	natural 	1	n	0	0        	 	0.0	0	92.2053075000003	92.3052888000093	0.0999813000089489
63200	100	161	stimuli/nonmovArt/headphones/nma_headphones04.jpg	1	3	1	nma_headphones04.jpg 	nonmovArt	4	headphones	18	headphones04	183	not_alive	0	still	0	artefact	0	n	0	0        	 	0.0	0	92.3553038999962	92.4552896000096	0.0999857000133488
63350	100	162	stimuli/plant/vine/plant_vine03.jpg              	1	3	1	plant_vine03.jpg     	plant    	6	vine      	36	vine03      	362	alive    	1	still	0	natural 	1	n	0	0        	 	0.0	0	92.5052992000128	92.6052943000104	0.0999950999976136
63500	100	163	stimuli/plant/cactus/plant_cactus05.jpg          	1	3	1	plant_cactus05.jpg   	plant    	6	cactus    	4	cactus05    	44	alive    	1	still	0	natural 	1	n	0	0        	 	0.0	0	92.6553045999899	92.7552973999991	0.0999928000092041
63650	100	164	stimuli/plant/flower/plant_flower02.jpg          	1	3	1	plant_flower02.jpg   	plant    	6	flower    	16	flower02    	161	alive    	1	still	0	natural 	1	n	0	0        	 	0.0	0	92.8053079000092	92.9053003000154	0.0999924000061583
63800	100	165	stimuli/nonmovNat/crystal/nmn_crystal08.jpg      	1	3	1	nmn_crystal08.jpg    	nonmovNat	5	crystal   	10	crystal08   	107	not_alive	0	still	0	natural 	1	n	0	0        	 	0.0	0	92.9553097000171	93.0553064999986	0.0999967999814544
63950	100	166	stimuli/nonmovNat/crystal/nmn_crystal09.jpg      	1	3	1	nmn_crystal09.jpg    	nonmovNat	5	crystal   	10	crystal09   	108	not_alive	0	still	0	natural 	1	n	0	0        	 	0.0	0	93.1053183999902	93.2053080000042	0.0999896000139415
64101	100	167	stimuli/nonmovArt/lock/nma_lock10.jpg            	1	3	1	nma_lock10.jpg       	nonmovArt	4	lock      	24	lock10      	249	not_alive	0	still	0	artefact	0	n	0	0        	 	0.0	0	93.2553250000056	93.3553121000004	0.0999870999949053
64251	100	168	stimuli/plant/flower/plant_flower09.jpg          	1	3	1	plant_flower09.jpg   	plant    	6	flower    	16	flower09    	168	alive    	1	still	0	natural 	1	n	0	0        	 	0.0	0	93.4053453000088	93.5053157999937	0.09997049998492
64401	100	169	stimuli/plant2/moss/plant_moss06.jpg             	1	3	1	plant_moss06.jpg     	plant2   	7	moss      	25	moss06      	255	alive    	1	still	0	natural 	1	n	0	0        	 	0.0	0	93.5553263000038	93.6553236999898	0.0999973999860231
64551	100	170	stimuli/plant/grass/plant_grass05.jpg            	1	3	1	plant_grass05.jpg    	plant    	6	grass     	17	grass05     	174	alive    	1	still	0	natural 	1	n	0	0        	 	0.0	0	93.7053294999932	93.8053224000032	0.0999929000099655
64701	100	171	stimuli/animals/eagle/animal_eagle02.jpg         	1	3	1	animal_eagle02.jpg   	animals  	0	eagle     	13	eagle02     	131	alive    	1	moves	1	natural 	1	n	0	0        	 	0.0	0	93.8553373000177	93.9553339999984	0.0999966999806929
64851	100	172	stimuli/animals2/pigeon/animal_pigeon07.jpg      	1	3	1	animal_pigeon07.jpg  	animals2 	1	pigeon    	28	pigeon07    	286	alive    	1	moves	1	natural 	1	n	0	0        	 	0.0	0	94.0053465999954	94.1053327000118	0.0999861000163946
65001	100	173	stimuli/animals/horse/animal_horse03.jpg         	1	3	1	animal_horse03.jpg   	animals  	0	horse     	20	horse03     	202	alive    	1	moves	1	natural 	1	n	0	0        	 	0.0	0	94.1553425000166	94.2553352999967	0.0999927999801002
65151	100	174	stimuli/plant/cactus/plant_cactus02.jpg          	1	3	1	plant_cactus02.jpg   	plant    	6	cactus    	4	cactus02    	41	alive    	1	still	0	natural 	1	n	0	0        	 	0.0	0	94.3053448999999	94.4053395999945	0.0999946999945678
65301	100	175	stimuli/nonmovNat/shell/nmn_shell08.jpg          	1	3	1	nmn_shell08.jpg      	nonmovNat	5	shell     	32	shell08     	327	not_alive	0	still	0	natural 	1	n	0	0        	 	0.0	0	94.4553505000077	94.5553427000123	0.0999922000046354
65451	100	176	stimuli/nonmovNat/sand/nmn_sand03.jpg            	1	3	1	nmn_sand03.jpg       	nonmovNat	5	sand      	31	sand03      	312	not_alive	0	still	0	natural 	1	n	0	0        	 	0.0	0	94.6053537999978	94.7053470000101	0.0999932000122499
65601	100	177	stimuli/plant2/palmtree/plant_palmtree08.jpg     	1	3	1	plant_palmtree08.jpg 	plant2   	7	palmtree  	27	palmtree08  	277	alive    	1	still	0	natural 	1	n	1	0        	 	0.0	0	94.7553564000118	94.855350400001	0.0999939999892376
65751	100	178	stimuli/movArt/train/ma_train01.jpg              	1	3	1	ma_train01.jpg       	movArt   	2	train     	34	train01     	340	not_alive	0	moves	1	artefact	0	n	0	0        	 	0.0	0	94.9053593999997	95.0053527000127	0.0999933000130113
65901	100	179	stimuli/plant2/fern/plant_fern06.jpg             	1	3	1	plant_fern06.jpg     	plant2   	7	fern      	14	fern06      	145	alive    	1	still	0	natural 	1	n	0	1        	f	0.292217599984724	1	95.0553665999905	95.1553579000174	0.0999913000268862
66051	100	180	stimuli/animals2/lemur/animal_lemur09.jpg        	1	3	1	animal_lemur09.jpg   	animals2 	1	lemur     	23	lemur09     	238	alive    	1	moves	1	natural 	1	n	0	0        	 	0.0	0	95.2053684999992	95.3053646000044	0.0999961000052281
66201	100	181	stimuli/nonmovArt/bench/nma_bench06.jpg          	1	3	1	nma_bench06.jpg      	nonmovArt	4	bench     	1	bench06     	15	not_alive	0	still	0	artefact	0	n	0	0        	 	0.0	0	95.3553718999901	95.4553720999975	0.100000200007344
66351	100	182	stimuli/nonmovNat/sand/nmn_sand08.jpg            	1	3	1	nmn_sand08.jpg       	nonmovNat	5	sand      	31	sand08      	317	not_alive	0	still	0	natural 	1	n	0	0        	 	0.0	0	95.5053611000185	95.6053842999972	0.10002319997875
66501	100	183	stimuli/movArt/boat/ma_boat02.jpg                	1	3	1	ma_boat02.jpg        	movArt   	2	boat      	2	boat02      	21	not_alive	0	moves	1	artefact	0	n	0	0        	 	0.0	0	95.6553814999934	95.7553740000003	0.0999925000069197
66651	100	184	stimuli/nonmovNat/rock/nmn_rock06.jpg            	1	3	1	nmn_rock06.jpg       	nonmovNat	5	rock      	30	rock06      	305	not_alive	0	still	0	natural 	1	n	0	0        	 	0.0	0	95.8053843000089	95.9053769000165	0.0999926000076812
66801	100	185	stimuli/movArt/car/ma_car05.jpg                  	1	3	1	ma_car05.jpg         	movArt   	2	car       	5	car05       	54	not_alive	0	moves	1	artefact	0	n	0	0        	 	0.0	0	95.9553875999991	96.0553890000156	0.100001400016481
66951	100	186	stimuli/plant2/palmtree/plant_palmtree09.jpg     	1	3	1	plant_palmtree09.jpg 	plant2   	7	palmtree  	27	palmtree09  	278	alive    	1	still	0	natural 	1	n	1	0        	 	0.0	0	96.1053912999923	96.2053846000054	0.0999933000130113
67101	100	187	stimuli/movArt/boat/ma_boat06.jpg                	1	3	1	ma_boat06.jpg        	movArt   	2	boat      	2	boat06      	25	not_alive	0	moves	1	artefact	0	n	0	0        	 	0.0	0	96.2553972000023	96.3553871999902	0.0999899999878835
67251	100	188	stimuli/animals/dolphin/animal_dolphin01.jpg     	1	3	1	animal_dolphin01.jpg 	animals  	0	dolphin   	12	dolphin01   	120	alive    	1	moves	1	natural 	1	n	0	0        	 	0.0	0	96.405399100011	96.5053934000025	0.099994299991522
67401	100	189	stimuli/nonmovArt/mug/nma_mug08.jpg              	1	3	1	nma_mug08.jpg        	nonmovArt	4	mug       	26	mug08       	267	not_alive	0	still	0	artefact	0	n	0	1        	f	0.542022700014059	1	96.5554024000012	96.6553971999965	0.0999947999953292
67551	100	190	stimuli/plant/cactus/plant_cactus05.jpg          	1	3	1	plant_cactus05.jpg   	plant    	6	cactus    	4	cactus05    	44	alive    	1	still	0	natural 	1	n	0	0        	 	0.0	0	96.705406299996	96.8054005000158	0.0999942000198644
67701	100	191	stimuli/animals/cat/animal_cat03.jpg             	1	3	1	animal_cat03.jpg     	animals  	0	cat       	6	cat03       	62	alive    	1	moves	1	natural 	1	n	0	0        	 	0.0	0	96.8554096000153	96.9554029999999	0.0999933999846689
67851	100	192	stimuli/movNat/waterfall/mn_waterfall01.jpg      	1	3	1	mn_waterfall01.jpg   	movNat   	3	waterfall 	37	waterfall01 	370	not_alive	0	moves	1	natural 	1	n	0	0        	 	0.0	0	97.0054146999901	97.1054062000185	0.0999915000284091
68001	100	193	stimuli/animals2/pigeon/animal_pigeon05.jpg      	1	3	1	animal_pigeon05.jpg  	animals2 	1	pigeon    	28	pigeon05    	284	alive    	1	moves	1	natural 	1	n	0	0        	 	0.0	0	97.1554145000118	97.255411399994	0.0999968999822158
68151	100	194	stimuli/plant/grass/plant_grass02.jpg            	1	3	1	plant_grass02.jpg    	plant    	6	grass     	17	grass02     	171	alive    	1	still	0	natural 	1	n	0	0        	 	0.0	0	97.3054215000011	97.4054151000164	0.0999936000152957
68301	100	195	stimuli/animals/eagle/animal_eagle07.jpg         	1	3	1	animal_eagle07.jpg   	animals  	0	eagle     	13	eagle07     	136	alive    	1	moves	1	natural 	1	n	0	0        	 	0.0	0	97.4554261000012	97.555417800002	0.0999917000008281
68451	100	196	stimuli/animals/dolphin/animal_dolphin09.jpg     	1	3	1	animal_dolphin09.jpg 	animals  	0	dolphin   	12	dolphin09   	128	alive    	1	moves	1	natural 	1	n	0	0        	 	0.0	0	97.6054282000114	97.7054223000014	0.0999940999899991
68601	100	197	stimuli/animals2/tiger/animal_tiger10.jpg        	1	3	1	animal_tiger10.jpg   	animals2 	1	tiger     	33	tiger10     	339	alive    	1	moves	1	natural 	1	n	0	0        	 	0.0	0	97.7554336000176	97.8554457999999	0.100012199982302
68751	100	198	stimuli/movArt/train/ma_train01.jpg              	1	3	1	ma_train01.jpg       	movArt   	2	train     	34	train01     	340	not_alive	0	moves	1	artefact	0	n	0	0        	 	0.0	0	97.9054366000055	98.005429700017	0.0999931000114884
68901	100	199	stimuli/plant/vine/plant_vine09.jpg              	1	3	1	plant_vine09.jpg     	plant    	6	vine      	36	vine09      	368	alive    	1	still	0	natural 	1	n	0	0        	 	0.0	0	98.0554394999926	98.1554381000169	0.0999986000242643
69051	100	200	stimuli/movArt/boat/ma_boat08.jpg                	1	3	1	ma_boat08.jpg        	movArt   	2	boat      	2	boat08      	27	not_alive	0	moves	1	artefact	0	n	0	0        	 	0.0	0	98.2054466000118	98.3054363999981	0.0999897999863606
69201	100	201	stimuli/plant2/lemontree/plant_lemontree04.jpg   	1	3	1	plant_lemontree04.jpg	plant2   	7	lemontree 	22	lemontree04 	223	alive    	1	still	0	natural 	1	n	0	0        	 	0.0	0	98.3554474000121	98.4554426000104	0.099995199998375
69351	100	202	stimuli/animals2/bee/animal_bee07.jpg            	1	3	1	animal_bee07.jpg     	animals2 	1	bee       	0	bee07       	6	alive    	1	moves	1	natural 	1	n	0	0        	 	0.0	0	98.5054659000016	98.6054418999993	0.0999759999976959
69501	100	203	stimuli/plant2/lemontree/plant_lemontree10.jpg   	1	3	1	plant_lemontree10.jpg	plant2   	7	lemontree 	22	lemontree10 	229	alive    	1	still	0	natural 	1	n	0	0        	 	0.0	0	98.6554551000008	98.7554482000123	0.0999931000114884
69651	100	204	stimuli/movArt/bus/ma_bus02.jpg                  	1	3	1	ma_bus02.jpg         	movArt   	2	bus       	3	bus02       	31	not_alive	0	moves	1	artefact	0	n	0	0        	 	0.0	0	98.805460500007	98.9054557000054	0.099995199998375
69801	100	205	stimuli/movNat/hotspring/mn_hotspring06.jpg      	1	3	1	mn_hotspring06.jpg   	movNat   	3	hotspring 	21	hotspring06 	215	not_alive	0	moves	1	natural 	1	n	0	0        	 	0.0	0	98.9554820999911	99.0554739999934	0.099991900002351
69951	100	206	stimuli/animals/cat/animal_cat07.jpg             	1	3	1	animal_cat07.jpg     	animals  	0	cat       	6	cat07       	66	alive    	1	moves	1	natural 	1	n	0	0        	 	0.0	0	99.1054841000005	99.2054782999912	0.0999941999907605
70101	100	207	stimuli/animals2/bee/animal_bee05.jpg            	1	3	1	animal_bee05.jpg     	animals2 	1	bee       	0	bee05       	4	alive    	1	moves	1	natural 	1	n	0	0        	 	0.0	0	99.2554918999958	99.3554828999913	0.099990999995498
70251	100	208	stimuli/nonmovNat/cliff/nmn_cliff09.jpg          	1	3	1	nmn_cliff09.jpg      	nonmovNat	5	cliff     	7	cliff09     	78	not_alive	0	still	0	natural 	1	n	0	0        	 	0.0	0	99.4054934000014	99.505491399992	0.0999979999905918
70401	100	209	stimuli/animals/cat/animal_cat07.jpg             	1	3	1	animal_cat07.jpg     	animals  	0	cat       	6	cat07       	66	alive    	1	moves	1	natural 	1	n	0	0        	 	0.0	0	99.5554966999917	99.6554900000046	0.0999933000130113
70551	100	210	stimuli/plant2/fern/plant_fern07.jpg             	1	3	1	plant_fern07.jpg     	plant2   	7	fern      	14	fern07      	146	alive    	1	still	0	natural 	1	n	0	0        	 	0.0	0	99.7055010999902	99.805499900016	0.0999988000257872
70701	100	211	stimuli/nonmovNat/shell/nmn_shell01.jpg          	1	3	1	nmn_shell01.jpg      	nonmovNat	5	shell     	32	shell01     	320	not_alive	0	still	0	natural 	1	n	0	0        	 	0.0	0	99.8554979999899	99.9555059999984	0.100008000008529
70851	100	212	stimuli/animals2/bee/animal_bee07.jpg            	1	3	1	animal_bee07.jpg     	animals2 	1	bee       	0	bee07       	6	alive    	1	moves	1	natural 	1	n	0	0        	 	0.0	0	100.005518899998	100.105497500015	0.0999786000174936
71001	100	213	stimuli/nonmovNat/crystal/nmn_crystal05.jpg      	1	3	1	nmn_crystal05.jpg    	nonmovNat	5	crystal   	10	crystal05   	104	not_alive	0	still	0	natural 	1	n	0	0        	 	0.0	0	100.155505500006	100.255510399991	0.100004899984924
71151	100	214	stimuli/plant2/lemontree/plant_lemontree09.jpg   	1	3	1	plant_lemontree09.jpg	plant2   	7	lemontree 	22	lemontree09 	228	alive    	1	still	0	natural 	1	n	0	0        	 	0.0	0	100.305506500008	100.405496799998	0.0999902999901678
71301	100	215	stimuli/plant2/moss/plant_moss06.jpg             	1	3	1	plant_moss06.jpg     	plant2   	7	moss      	25	moss06      	255	alive    	1	still	0	natural 	1	n	0	0        	 	0.0	0	100.455506800005	100.555502400006	0.0999956000014208
71451	100	216	stimuli/movNat/waterfall/mn_waterfall05.jpg      	1	3	1	mn_waterfall05.jpg   	movNat   	3	waterfall 	37	waterfall05 	374	not_alive	0	moves	1	natural 	1	n	0	0        	 	0.0	0	100.605509799992	100.705504200014	0.0999944000213873
71601	100	217	stimuli/nonmovNat/shell/nmn_shell05.jpg          	1	3	1	nmn_shell05.jpg      	nonmovNat	5	shell     	32	shell05     	324	not_alive	0	still	0	natural 	1	n	0	0        	 	0.0	0	100.755515099998	100.855518299999	0.100003200001083
71751	100	218	stimuli/nonmovArt/mug/nma_mug09.jpg              	1	3	1	nma_mug09.jpg        	nonmovArt	4	mug       	26	mug09       	268	not_alive	0	still	0	artefact	0	n	0	0        	 	0.0	0	100.905511999998	101.005512300006	0.100000300008105
71901	100	219	stimuli/movArt/helicopter/ma_helicopter02.jpg    	1	3	1	ma_helicopter02.jpg  	movArt   	2	helicopter	19	helicopter02	191	not_alive	0	moves	1	artefact	0	n	0	0        	 	0.0	0	101.055513300002	101.155507799995	0.0999944999930449
72051	100	220	stimuli/nonmovArt/bench/nma_bench08.jpg          	1	3	1	nma_bench08.jpg      	nonmovArt	4	bench     	1	bench08     	17	not_alive	0	still	0	artefact	0	n	0	0        	 	0.0	0	101.205519900017	101.3055131	0.099993199983146
72201	100	221	stimuli/movNat/waves/mn_waves02.jpg              	1	3	1	mn_waves02.jpg       	movNat   	3	waves     	38	waves02     	381	not_alive	0	moves	1	natural 	1	n	0	0        	 	0.0	0	101.355522500002	101.455520000018	0.0999975000158884
72351	100	222	stimuli/plant2/fern/plant_fern01.jpg             	1	3	1	plant_fern01.jpg     	plant2   	7	fern      	14	fern01      	140	alive    	1	still	0	natural 	1	n	0	0        	 	0.0	0	101.5055268	101.605544099992	0.100017299992032
72501	100	223	stimuli/nonmovNat/rock/nmn_rock09.jpg            	1	3	1	nmn_rock09.jpg       	nonmovNat	5	rock      	30	rock09      	308	not_alive	0	still	0	natural 	1	n	0	0        	 	0.0	0	101.65553280001	101.755525899993	0.0999930999823846
72651	100	224	stimuli/movArt/car/ma_car09.jpg                  	1	3	1	ma_car09.jpg         	movArt   	2	car       	5	car09       	58	not_alive	0	moves	1	artefact	0	n	0	0        	 	0.0	0	101.805535599997	101.905527399998	0.0999918000015896
72801	100	225	stimuli/plant/tree/plant_tree03.jpg              	1	3	1	plant_tree03.jpg     	plant    	6	tree      	35	tree03      	352	alive    	1	still	0	natural 	1	n	0	0        	 	0.0	0	101.95553810001	102.055531299993	0.099993199983146
72951	100	226	stimuli/movArt/helicopter/ma_helicopter03.jpg    	1	3	1	ma_helicopter03.jpg  	movArt   	2	helicopter	19	helicopter03	192	not_alive	0	moves	1	artefact	0	n	0	0        	 	0.0	0	102.105549700005	102.205541500007	0.0999918000015896
73101	100	227	stimuli/nonmovArt/headphones/nma_headphones09.jpg	1	3	1	nma_headphones09.jpg 	nonmovArt	4	headphones	18	headphones09	188	not_alive	0	still	0	artefact	0	n	0	0        	 	0.0	0	102.255568299996	102.355546100007	0.099977800011402
73251	100	228	stimuli/movNat/waves/mn_waves05.jpg              	1	3	1	mn_waves05.jpg       	movNat   	3	waves     	38	waves05     	384	not_alive	0	moves	1	natural 	1	n	0	0        	 	0.0	0	102.405556500016	102.505552499992	0.0999959999753628
73401	100	229	stimuli/animals/dog/animal_dog03.jpg             	1	3	1	animal_dog03.jpg     	animals  	0	dog       	11	dog03       	112	alive    	1	moves	1	natural 	1	n	0	0        	 	0.0	0	102.555558499997	102.655551600008	0.0999931000114884
73551	100	230	stimuli/movNat/hotspring/mn_hotspring10.jpg      	1	3	1	mn_hotspring10.jpg   	movNat   	3	hotspring 	21	hotspring10 	219	not_alive	0	moves	1	natural 	1	n	0	0        	 	0.0	0	102.705562899995	102.805565999995	0.100003100000322
73701	100	231	stimuli/animals2/lemur/animal_lemur02.jpg        	1	3	1	animal_lemur02.jpg   	animals2 	1	lemur     	23	lemur02     	231	alive    	1	moves	1	natural 	1	n	0	0        	 	0.0	0	102.855603200005	102.955555199995	0.099951999989571
73851	100	232	stimuli/plant/tree/plant_tree04.jpg              	1	3	1	plant_tree04.jpg     	plant    	6	tree      	35	tree04      	353	alive    	1	still	0	natural 	1	n	0	0        	 	0.0	0	103.005567999993	103.105567599996	0.099999600002775
74001	100	233	stimuli/nonmovArt/clothespeg/nma_clothespeg09.jpg	1	3	1	nma_clothespeg09.jpg 	nonmovArt	4	clothespeg	8	clothespeg09	88	not_alive	0	still	0	artefact	0	n	0	0        	 	0.0	0	103.155574900011	103.255571499991	0.0999965999799315
74151	100	234	stimuli/nonmovArt/mug/nma_mug02.jpg              	1	3	1	nma_mug02.jpg        	nonmovArt	4	mug       	26	mug02       	261	not_alive	0	still	0	artefact	0	n	0	0        	 	0.0	0	103.305582700006	103.4055735	0.0999907999939751
74301	100	235	stimuli/nonmovNat/rock/nmn_rock09.jpg            	1	3	1	nmn_rock09.jpg       	nonmovNat	5	rock      	30	rock09      	308	not_alive	0	still	0	natural 	1	n	0	0        	 	0.0	0	103.455581200018	103.555574400001	0.099993199983146
74451	100	236	stimuli/animals/horse/animal_horse10.jpg         	1	3	1	animal_horse10.jpg   	animals  	0	horse     	20	horse10     	209	alive    	1	moves	1	natural 	1	n	0	0        	 	0.0	0	103.605624000018	103.7055788	0.0999547999817878
74601	100	237	stimuli/animals/dog/animal_dog01.jpg             	1	3	1	animal_dog01.jpg     	animals  	0	dog       	11	dog01       	110	alive    	1	moves	1	natural 	1	n	0	0        	 	0.0	0	103.755605300015	103.855611900013	0.100006599997869
74751	100	238	stimuli/nonmovNat/sand/nmn_sand01.jpg            	1	3	1	nmn_sand01.jpg       	nonmovNat	5	sand      	31	sand01      	310	not_alive	0	still	0	natural 	1	n	0	0        	 	0.0	0	103.905615099997	104.005599800003	0.0999847000057343
74901	100	239	stimuli/plant/tree/plant_tree02.jpg              	1	3	1	plant_tree02.jpg     	plant    	6	tree      	35	tree02      	351	alive    	1	still	0	natural 	1	n	0	0        	 	0.0	0	104.055617300008	104.155598100013	0.0999808000051416
77851	100	240	stimuli/nonmovArt/bench/nma_bench04.jpg          	1	4	1	nma_bench04.jpg      	nonmovArt	4	bench     	1	bench04     	13	not_alive	0	still	0	artefact	0	n	0	0        	 	0.0	0	107.005676800007	107.105663800001	0.0999869999941438
78001	100	241	stimuli/animals/eagle/animal_eagle04.jpg         	1	4	1	animal_eagle04.jpg   	animals  	0	eagle     	13	eagle04     	133	alive    	1	moves	1	natural 	1	n	0	0        	 	0.0	0	107.155675999995	107.255670600018	0.0999946000229102
78151	100	242	stimuli/animals/dolphin/animal_dolphin07.jpg     	1	4	1	animal_dolphin07.jpg 	animals  	0	dolphin   	12	dolphin07   	126	alive    	1	moves	1	natural 	1	n	0	0        	 	0.0	0	107.305678200006	107.405670500011	0.0999923000053968
78301	100	243	stimuli/plant/grass/plant_grass03.jpg            	1	4	1	plant_grass03.jpg    	plant    	6	grass     	17	grass03     	172	alive    	1	still	0	natural 	1	n	0	0        	 	0.0	0	107.455682600004	107.555673900002	0.0999912999977823
78451	100	244	stimuli/plant/cactus/plant_cactus04.jpg          	1	4	1	plant_cactus04.jpg   	plant    	6	cactus    	4	cactus04    	43	alive    	1	still	0	natural 	1	n	0	0        	 	0.0	0	107.605686900002	107.70569599999	0.100009099987801
78601	100	245	stimuli/plant2/clover/plant_clover01.jpg         	1	4	1	plant_clover01.jpg   	plant2   	7	clover    	9	clover01    	90	alive    	1	still	0	natural 	1	n	0	0        	 	0.0	0	107.755692100007	107.855716599996	0.100024499988649
78751	100	246	stimuli/movNat/hotspring/mn_hotspring08.jpg      	1	4	1	mn_hotspring08.jpg   	movNat   	3	hotspring 	21	hotspring08 	217	not_alive	0	moves	1	natural 	1	n	0	0        	 	0.0	0	107.905699099996	108.005733900005	0.100034800008871
78901	100	247	stimuli/plant2/lemontree/plant_lemontree03.jpg   	1	4	1	plant_lemontree03.jpg	plant2   	7	lemontree 	22	lemontree03 	222	alive    	1	still	0	natural 	1	n	0	0        	 	0.0	0	108.055722499994	108.155714299995	0.0999918000015896
79051	100	248	stimuli/animals2/whale/animal_whale08.jpg        	1	4	1	animal_whale08.jpg   	animals2 	1	whale     	39	whale08     	397	alive    	1	moves	1	natural 	1	n	0	0        	 	0.0	0	108.205722500017	108.305725000013	0.100002499995753
79201	100	249	stimuli/plant2/moss/plant_moss05.jpg             	1	4	1	plant_moss05.jpg     	plant2   	7	moss      	25	moss05      	254	alive    	1	still	0	natural 	1	n	0	0        	 	0.0	0	108.355711100012	108.455729000008	0.100017899996601
79351	100	250	stimuli/nonmovArt/mug/nma_mug10.jpg              	1	4	1	nma_mug10.jpg        	nonmovArt	4	mug       	26	mug10       	269	not_alive	0	still	0	artefact	0	n	0	0        	 	0.0	0	108.505730600009	108.605724699999	0.0999940999899991
79501	100	251	stimuli/animals/dolphin/animal_dolphin07.jpg     	1	4	1	animal_dolphin07.jpg 	animals  	0	dolphin   	12	dolphin07   	126	alive    	1	moves	1	natural 	1	n	0	0        	 	0.0	0	108.655733399995	108.755729900004	0.0999965000082739
79651	100	252	stimuli/movNat/waves/mn_waves08.jpg              	1	4	1	mn_waves08.jpg       	movNat   	3	waves     	38	waves08     	387	not_alive	0	moves	1	natural 	1	n	0	0        	 	0.0	0	108.805724900012	108.905732000014	0.100007100001676
79801	100	253	stimuli/movNat/hotspring/mn_hotspring01.jpg      	1	4	1	mn_hotspring01.jpg   	movNat   	3	hotspring 	21	hotspring01 	210	not_alive	0	moves	1	natural 	1	n	0	0        	 	0.0	0	108.955755800009	109.055740300013	0.0999845000042114
79951	100	254	stimuli/plant/flower/plant_flower07.jpg          	1	4	1	plant_flower07.jpg   	plant    	6	flower    	16	flower07    	166	alive    	1	still	0	natural 	1	n	0	0        	 	0.0	0	109.105756300007	109.205743900005	0.0999875999987125
80101	100	255	stimuli/animals/horse/animal_horse05.jpg         	1	4	1	animal_horse05.jpg   	animals  	0	horse     	20	horse05     	204	alive    	1	moves	1	natural 	1	n	0	0        	 	0.0	0	109.255752700003	109.355745800014	0.0999931000114884
80251	100	256	stimuli/plant/flower/plant_flower07.jpg          	1	4	1	plant_flower07.jpg   	plant    	6	flower    	16	flower07    	166	alive    	1	still	0	natural 	1	n	0	0        	 	0.0	0	109.405748299992	109.505748299998	0.100000000005821
80401	100	257	stimuli/plant/tree/plant_tree02.jpg              	1	4	1	plant_tree02.jpg     	plant    	6	tree      	35	tree02      	351	alive    	1	still	0	natural 	1	n	0	0        	 	0.0	0	109.555748100014	109.6557493	0.100001199985854
80551	100	258	stimuli/plant/grass/plant_grass04.jpg            	1	4	1	plant_grass04.jpg    	plant    	6	grass     	17	grass04     	173	alive    	1	still	0	natural 	1	n	0	0        	 	0.0	0	109.705762500002	109.805739400006	0.099976900004549
80701	100	259	stimuli/plant/vine/plant_vine09.jpg              	1	4	1	plant_vine09.jpg     	plant    	6	vine      	36	vine09      	368	alive    	1	still	0	natural 	1	n	0	0        	 	0.0	0	109.855767600005	109.95575719999	0.0999895999848377
80851	100	260	stimuli/movArt/car/ma_car03.jpg                  	1	4	1	ma_car03.jpg         	movArt   	2	car       	5	car03       	52	not_alive	0	moves	1	artefact	0	n	0	0        	 	0.0	0	110.005769200012	110.105762499996	0.0999932999839075
81001	100	261	stimuli/nonmovArt/clothespeg/nma_clothespeg08.jpg	1	4	1	nma_clothespeg08.jpg 	nonmovArt	4	clothespeg	8	clothespeg08	87	not_alive	0	still	0	artefact	0	n	0	0        	 	0.0	0	110.155757700006	110.2557638	0.100006099994062
81151	100	262	stimuli/plant2/clover/plant_clover10.jpg         	1	4	1	plant_clover10.jpg   	plant2   	7	clover    	9	clover10    	99	alive    	1	still	0	natural 	1	n	0	0        	 	0.0	0	110.305792200001	110.40576970001	0.0999775000091176
81301	100	263	stimuli/movNat/waves/mn_waves04.jpg              	1	4	1	mn_waves04.jpg       	movNat   	3	waves     	38	waves04     	383	not_alive	0	moves	1	natural 	1	n	1	0        	 	0.0	0	110.455762600002	110.555772899999	0.100010299996939
81451	100	264	stimuli/plant2/fern/plant_fern02.jpg             	1	4	1	plant_fern02.jpg     	plant2   	7	fern      	14	fern02      	141	alive    	1	still	0	natural 	1	n	0	0        	 	0.0	0	110.605788999994	110.705768699991	0.0999796999967657
81601	100	265	stimuli/animals2/bee/animal_bee10.jpg            	1	4	1	animal_bee10.jpg     	animals2 	1	bee       	0	bee10       	9	alive    	1	moves	1	natural 	1	n	0	1        	f	0.392043800005922	1	110.755779700004	110.855769000016	0.0999893000116572
81751	100	266	stimuli/movArt/helicopter/ma_helicopter01.jpg    	1	4	1	ma_helicopter01.jpg  	movArt   	2	helicopter	19	helicopter01	190	not_alive	0	moves	1	artefact	0	n	0	0        	 	0.0	0	110.905775199994	111.00579950001	0.10002430001623
81901	100	267	stimuli/plant2/palmtree/plant_palmtree02.jpg     	1	4	1	plant_palmtree02.jpg 	plant2   	7	palmtree  	27	palmtree02  	271	alive    	1	still	0	natural 	1	n	1	0        	 	0.0	0	111.055798599991	111.15578999999	0.0999913999985438
82051	100	268	stimuli/movArt/bus/ma_bus01.jpg                  	1	4	1	ma_bus01.jpg         	movArt   	2	bus       	3	bus01       	30	not_alive	0	moves	1	artefact	0	n	0	0        	 	0.0	0	111.205796800001	111.30578200001	0.0999852000095416
82201	100	269	stimuli/nonmovNat/sand/nmn_sand05.jpg            	1	4	1	nmn_sand05.jpg       	nonmovNat	5	sand      	31	sand05      	314	not_alive	0	still	0	natural 	1	n	0	0        	 	0.0	0	111.355815699993	111.455795699992	0.09997999999905
82351	100	270	stimuli/nonmovNat/cliff/nmn_cliff07.jpg          	1	4	1	nmn_cliff07.jpg      	nonmovNat	5	cliff     	7	cliff07     	76	not_alive	0	still	0	natural 	1	n	0	0        	 	0.0	0	111.505791300006	111.605783000006	0.0999917000008281
82501	100	271	stimuli/plant2/moss/plant_moss04.jpg             	1	4	1	plant_moss04.jpg     	plant2   	7	moss      	25	moss04      	253	alive    	1	still	0	natural 	1	n	0	1        	f	0.59213850001106	1	111.655813299993	111.755806100002	0.0999928000092041
82651	100	272	stimuli/movNat/waterfall/mn_waterfall06.jpg      	1	4	1	mn_waterfall06.jpg   	movNat   	3	waterfall 	37	waterfall06 	375	not_alive	0	moves	1	natural 	1	n	0	0        	 	0.0	0	111.805798599991	111.905806800001	0.100008200010052
82801	100	273	stimuli/animals2/whale/animal_whale09.jpg        	1	4	1	animal_whale09.jpg   	animals2 	1	whale     	39	whale09     	398	alive    	1	moves	1	natural 	1	n	0	0        	 	0.0	0	111.955803399993	112.055810199992	0.100006799999392
82951	100	274	stimuli/animals/horse/animal_horse03.jpg         	1	4	1	animal_horse03.jpg   	animals  	0	horse     	20	horse03     	202	alive    	1	moves	1	natural 	1	n	0	0        	 	0.0	0	112.105823699996	112.205814200017	0.0999905000207946
83101	100	275	stimuli/nonmovNat/shell/nmn_shell09.jpg          	1	4	1	nmn_shell09.jpg      	nonmovNat	5	shell     	32	shell09     	328	not_alive	0	still	0	natural 	1	n	0	0        	 	0.0	0	112.255825700006	112.355803400016	0.0999777000106406
83251	100	276	stimuli/animals/dog/animal_dog02.jpg             	1	4	1	animal_dog02.jpg     	animals  	0	dog       	11	dog02       	111	alive    	1	moves	1	natural 	1	n	0	0        	 	0.0	0	112.405837500002	112.5058059	0.0999683999980334
83401	100	277	stimuli/movArt/train/ma_train02.jpg              	1	4	1	ma_train02.jpg       	movArt   	2	train     	34	train02     	341	not_alive	0	moves	1	artefact	0	n	0	0        	 	0.0	0	112.555831500009	112.655829099996	0.099997599987546
83551	100	278	stimuli/animals2/pigeon/animal_pigeon02.jpg      	1	4	1	animal_pigeon02.jpg  	animals2 	1	pigeon    	28	pigeon02    	281	alive    	1	moves	1	natural 	1	n	0	0        	 	0.0	0	112.705822399992	112.8058303	0.100007900007768
83701	100	279	stimuli/movNat/waterfall/mn_waterfall09.jpg      	1	4	1	mn_waterfall09.jpg   	movNat   	3	waterfall 	37	waterfall09 	378	not_alive	0	moves	1	natural 	1	n	1	0        	 	0.0	0	112.855860700016	112.955839700007	0.0999789999914356
83851	100	280	stimuli/nonmovNat/shell/nmn_shell06.jpg          	1	4	1	nmn_shell06.jpg      	nonmovNat	5	shell     	32	shell06     	325	not_alive	0	still	0	natural 	1	n	0	0        	 	0.0	0	113.005849900015	113.105833700014	0.0999837999988813
84001	100	281	stimuli/nonmovNat/crystal/nmn_crystal04.jpg      	1	4	1	nmn_crystal04.jpg    	nonmovNat	5	crystal   	10	crystal04   	103	not_alive	0	still	0	natural 	1	n	0	0        	 	0.0	0	113.155832799996	113.25587210001	0.100039300014032
84151	100	282	stimuli/movNat/fire/mn_fire05.jpg                	1	4	1	mn_fire05.jpg        	movNat   	3	fire      	15	fire05      	154	not_alive	0	moves	1	natural 	1	n	0	1        	f	0.442170399997849	1	113.305850600009	113.40585000001	0.0999994000012521
84301	100	283	stimuli/movArt/boat/ma_boat01.jpg                	1	4	1	ma_boat01.jpg        	movArt   	2	boat      	2	boat01      	20	not_alive	0	moves	1	artefact	0	n	0	0        	 	0.0	0	113.455845799996	113.555858900014	0.100013100018259
84451	100	284	stimuli/movNat/fire/mn_fire02.jpg                	1	4	1	mn_fire02.jpg        	movNat   	3	fire      	15	fire02      	151	not_alive	0	moves	1	natural 	1	n	0	0        	 	0.0	0	113.605866900005	113.705857399997	0.0999904999916907
84601	100	285	stimuli/movNat/river/mn_river07.jpg              	1	4	1	mn_river07.jpg       	movNat   	3	river     	29	river07     	296	not_alive	0	moves	1	natural 	1	n	0	0        	 	0.0	0	113.7558747	113.855853599991	0.0999788999906741
84751	100	286	stimuli/movArt/helicopter/ma_helicopter09.jpg    	1	4	1	ma_helicopter09.jpg  	movArt   	2	helicopter	19	helicopter09	198	not_alive	0	moves	1	artefact	0	n	0	0        	 	0.0	0	113.905851499992	114.005877299991	0.100025799998548
84901	100	287	stimuli/plant/vine/plant_vine10.jpg              	1	4	1	plant_vine10.jpg     	plant    	6	vine      	36	vine10      	369	alive    	1	still	0	natural 	1	n	0	0        	 	0.0	0	114.055874700018	114.155866100016	0.0999913999985438
85051	100	288	stimuli/plant2/fern/plant_fern04.jpg             	1	4	1	plant_fern04.jpg     	plant2   	7	fern      	14	fern04      	143	alive    	1	still	0	natural 	1	n	0	0        	 	0.0	0	114.205868499994	114.305870500015	0.10000200002105
85201	100	289	stimuli/animals2/lemur/animal_lemur05.jpg        	1	4	1	animal_lemur05.jpg   	animals2 	1	lemur     	23	lemur05     	234	alive    	1	moves	1	natural 	1	n	0	0        	 	0.0	0	114.355867100006	114.455871999991	0.100004899984924
85351	100	290	stimuli/plant/grass/plant_grass03.jpg            	1	4	1	plant_grass03.jpg    	plant    	6	grass     	17	grass03     	172	alive    	1	still	0	natural 	1	n	0	0        	 	0.0	0	114.505881699995	114.605875600013	0.09999390001758
85501	100	291	stimuli/movArt/helicopter/ma_helicopter10.jpg    	1	4	1	ma_helicopter10.jpg  	movArt   	2	helicopter	19	helicopter10	199	not_alive	0	moves	1	artefact	0	n	0	0        	 	0.0	0	114.655870000017	114.755880300014	0.100010299996939
85651	100	292	stimuli/movArt/car/ma_car07.jpg                  	1	4	1	ma_car07.jpg         	movArt   	2	car       	5	car07       	56	not_alive	0	moves	1	artefact	0	n	0	0        	 	0.0	0	114.80587370001	114.905896300013	0.100022600003285
85801	100	293	stimuli/nonmovArt/headphones/nma_headphones08.jpg	1	4	1	nma_headphones08.jpg 	nonmovArt	4	headphones	18	headphones08	187	not_alive	0	still	0	artefact	0	n	0	0        	 	0.0	0	114.955888700002	115.055891399999	0.100002699997276
85951	100	294	stimuli/movArt/bus/ma_bus02.jpg                  	1	4	1	ma_bus02.jpg         	movArt   	2	bus       	3	bus02       	31	not_alive	0	moves	1	artefact	0	n	0	0        	 	0.0	0	115.105911099992	115.205890600017	0.0999795000243466
86101	100	295	stimuli/nonmovArt/lock/nma_lock06.jpg            	1	4	1	nma_lock06.jpg       	nonmovArt	4	lock      	24	lock06      	245	not_alive	0	still	0	artefact	0	n	0	0        	 	0.0	0	115.255901500001	115.355895100016	0.0999936000152957
86251	100	296	stimuli/movArt/boat/ma_boat08.jpg                	1	4	1	ma_boat08.jpg        	movArt   	2	boat      	2	boat08      	27	not_alive	0	moves	1	artefact	0	n	0	0        	 	0.0	0	115.405915500014	115.505902800011	0.0999872999964282
86401	100	297	stimuli/movNat/fire/mn_fire10.jpg                	1	4	1	mn_fire10.jpg        	movNat   	3	fire      	15	fire10      	159	not_alive	0	moves	1	natural 	1	n	0	0        	 	0.0	0	115.555892900011	115.655906300002	0.10001339999144
86551	100	298	stimuli/movArt/bus/ma_bus06.jpg                  	1	4	1	ma_bus06.jpg         	movArt   	2	bus       	3	bus06       	35	not_alive	0	moves	1	artefact	0	n	0	0        	 	0.0	0	115.705912100006	115.805907300004	0.099995199998375
86701	100	299	stimuli/animals/dog/animal_dog04.jpg             	1	4	1	animal_dog04.jpg     	animals  	0	dog       	11	dog04       	113	alive    	1	moves	1	natural 	1	n	0	0        	 	0.0	0	115.8559389	115.955909200013	0.099970300012501
86851	100	300	stimuli/animals2/tiger/animal_tiger01.jpg        	1	4	1	animal_tiger01.jpg   	animals2 	1	tiger     	33	tiger01     	330	alive    	1	moves	1	natural 	1	n	0	0        	 	0.0	0	116.005919999996	116.105897900008	0.0999779000121634
87001	100	301	stimuli/animals2/whale/animal_whale02.jpg        	1	4	1	animal_whale02.jpg   	animals2 	1	whale     	39	whale02     	391	alive    	1	moves	1	natural 	1	n	0	0        	 	0.0	0	116.155908699991	116.255905400001	0.0999967000097968
87151	100	302	stimuli/nonmovArt/lock/nma_lock05.jpg            	1	4	1	nma_lock05.jpg       	nonmovArt	4	lock      	24	lock05      	244	not_alive	0	still	0	artefact	0	n	0	0        	 	0.0	0	116.305927800015	116.405920699995	0.0999928999808617
87301	100	303	stimuli/animals/cat/animal_cat02.jpg             	1	4	1	animal_cat02.jpg     	animals  	0	cat       	6	cat02       	61	alive    	1	moves	1	natural 	1	n	0	0        	 	0.0	0	116.455940300017	116.555923700012	0.0999833999958355
87451	100	304	stimuli/nonmovNat/rock/nmn_rock08.jpg            	1	4	1	nmn_rock08.jpg       	nonmovNat	5	rock      	30	rock08      	307	not_alive	0	still	0	natural 	1	n	0	0        	 	0.0	0	116.605936000007	116.705940899992	0.100004899984924
87601	100	305	stimuli/movArt/train/ma_train06.jpg              	1	4	1	ma_train06.jpg       	movArt   	2	train     	34	train06     	345	not_alive	0	moves	1	artefact	0	n	0	0        	 	0.0	0	116.755922200013	116.855931500002	0.100009299989324
87751	100	306	stimuli/movNat/waterfall/mn_waterfall09.jpg      	1	4	1	mn_waterfall09.jpg   	movNat   	3	waterfall 	37	waterfall09 	378	not_alive	0	moves	1	natural 	1	n	0	0        	 	0.0	0	116.905939299992	117.005927799997	0.0999885000055656
87901	100	307	stimuli/animals2/bee/animal_bee04.jpg            	1	4	1	animal_bee04.jpg     	animals2 	1	bee       	0	bee04       	3	alive    	1	moves	1	natural 	1	n	0	0        	 	0.0	0	117.05593860001	117.155927200016	0.099988600006327
88051	100	308	stimuli/plant2/lemontree/plant_lemontree03.jpg   	1	4	1	plant_lemontree03.jpg	plant2   	7	lemontree 	22	lemontree03 	222	alive    	1	still	0	natural 	1	n	0	0        	 	0.0	0	117.205944000016	117.305941099999	0.0999970999837387
88201	100	309	stimuli/plant/tree/plant_tree10.jpg              	1	4	1	plant_tree10.jpg     	plant    	6	tree      	35	tree10      	359	alive    	1	still	0	natural 	1	n	0	0        	 	0.0	0	117.355945399991	117.455938300001	0.0999929000099655
88351	100	310	stimuli/animals/cat/animal_cat04.jpg             	1	4	1	animal_cat04.jpg     	animals  	0	cat       	6	cat04       	63	alive    	1	moves	1	natural 	1	n	0	0        	 	0.0	0	117.505954499997	117.60594139999	0.0999868999933824
88501	100	311	stimuli/animals2/bee/animal_bee04.jpg            	1	4	1	animal_bee04.jpg     	animals2 	1	bee       	0	bee04       	3	alive    	1	moves	1	natural 	1	n	0	0        	 	0.0	0	117.655952600006	117.755945300014	0.0999927000084426
88651	100	312	stimuli/animals/eagle/animal_eagle02.jpg         	1	4	1	animal_eagle02.jpg   	animals  	0	eagle     	13	eagle02     	131	alive    	1	moves	1	natural 	1	n	0	0        	 	0.0	0	117.805964400002	117.905957200011	0.0999928000092041
88801	100	313	stimuli/animals2/lemur/animal_lemur07.jpg        	1	4	1	animal_lemur07.jpg   	animals2 	1	lemur     	23	lemur07     	236	alive    	1	moves	1	natural 	1	n	0	0        	 	0.0	0	117.955969500006	118.055963799998	0.099994299991522
88951	100	314	stimuli/nonmovArt/bench/nma_bench08.jpg          	1	4	1	nma_bench08.jpg      	nonmovArt	4	bench     	1	bench08     	17	not_alive	0	still	0	artefact	0	n	0	0        	 	0.0	0	118.105972599995	118.205949700001	0.0999771000060718
89101	100	315	stimuli/plant2/palmtree/plant_palmtree09.jpg     	1	4	1	plant_palmtree09.jpg 	plant2   	7	palmtree  	27	palmtree09  	278	alive    	1	still	0	natural 	1	n	0	0        	 	0.0	0	118.255959800008	118.355955100007	0.0999952999991365
89251	100	316	stimuli/nonmovArt/headphones/nma_headphones09.jpg	1	4	1	nma_headphones09.jpg 	nonmovArt	4	headphones	18	headphones09	188	not_alive	0	still	0	artefact	0	n	0	0        	 	0.0	0	118.405969200016	118.50597269999	0.100003499974264
89401	100	317	stimuli/nonmovArt/headphones/nma_headphones02.jpg	1	4	1	nma_headphones02.jpg 	nonmovArt	4	headphones	18	headphones02	181	not_alive	0	still	0	artefact	0	n	0	0        	 	0.0	0	118.555971900001	118.655961700017	0.0999898000154644
89551	100	318	stimuli/nonmovNat/crystal/nmn_crystal06.jpg      	1	4	1	nmn_crystal06.jpg    	nonmovNat	5	crystal   	10	crystal06   	105	not_alive	0	still	0	natural 	1	n	0	0        	 	0.0	0	118.705988100002	118.805995300005	0.100007200002437
89701	100	319	stimuli/nonmovNat/crystal/nmn_crystal02.jpg      	1	4	1	nmn_crystal02.jpg    	nonmovNat	5	crystal   	10	crystal02   	101	not_alive	0	still	0	natural 	1	n	0	0        	 	0.0	0	118.856004500005	118.95598649999	0.0999819999851752
92168	100	320	stimuli/animals/dog/animal_dog04.jpg             	1	5	1	animal_dog04.jpg     	animals  	0	dog       	11	dog04       	113	alive    	1	moves	1	natural 	1	n	0	0        	 	0.0	0	121.322704799997	121.422705800011	0.100001000013435
92318	100	321	stimuli/nonmovNat/rock/nmn_rock02.jpg            	1	5	1	nmn_rock02.jpg       	nonmovNat	5	rock      	30	rock02      	301	not_alive	0	still	0	natural 	1	n	0	0        	 	0.0	0	121.472700600018	121.572694100003	0.0999934999854304
92468	100	322	stimuli/plant2/lemontree/plant_lemontree10.jpg   	1	5	1	plant_lemontree10.jpg	plant2   	7	lemontree 	22	lemontree10 	229	alive    	1	still	0	natural 	1	n	0	0        	 	0.0	0	121.622706399998	121.722701399995	0.0999949999968521
92618	100	323	stimuli/plant2/palmtree/plant_palmtree05.jpg     	1	5	1	plant_palmtree05.jpg 	plant2   	7	palmtree  	27	palmtree05  	274	alive    	1	still	0	natural 	1	n	0	0        	 	0.0	0	121.772721999994	121.8727029	0.0999809000059031
92768	100	324	stimuli/movNat/waves/mn_waves10.jpg              	1	5	1	mn_waves10.jpg       	movNat   	3	waves     	38	waves10     	389	not_alive	0	moves	1	natural 	1	n	0	0        	 	0.0	0	121.922711799998	122.022706499993	0.0999946999945678
92918	100	325	stimuli/animals2/lemur/animal_lemur08.jpg        	1	5	1	animal_lemur08.jpg   	animals2 	1	lemur     	23	lemur08     	237	alive    	1	moves	1	natural 	1	n	0	0        	 	0.0	0	122.072719299991	122.172713200009	0.09999390001758
93068	100	326	stimuli/plant2/fern/plant_fern07.jpg             	1	5	1	plant_fern07.jpg     	plant2   	7	fern      	14	fern07      	146	alive    	1	still	0	natural 	1	n	0	0        	 	0.0	0	122.222720899998	122.322715000017	0.0999941000191029
93218	100	327	stimuli/nonmovArt/mug/nma_mug06.jpg              	1	5	1	nma_mug06.jpg        	nonmovArt	4	mug       	26	mug06       	265	not_alive	0	still	0	artefact	0	n	0	0        	 	0.0	0	122.372723700013	122.472717099998	0.0999933999846689
93368	100	328	stimuli/plant2/moss/plant_moss07.jpg             	1	5	1	plant_moss07.jpg     	plant2   	7	moss      	25	moss07      	256	alive    	1	still	0	natural 	1	n	0	0        	 	0.0	0	122.522729799995	122.622733900003	0.100004100007936
93518	100	329	stimuli/animals/horse/animal_horse05.jpg         	1	5	1	animal_horse05.jpg   	animals  	0	horse     	20	horse05     	204	alive    	1	moves	1	natural 	1	n	0	0        	 	0.0	0	122.672734799999	122.772725100018	0.0999903000192717
93668	100	330	stimuli/animals2/pigeon/animal_pigeon03.jpg      	1	5	1	animal_pigeon03.jpg  	animals2 	1	pigeon    	28	pigeon03    	282	alive    	1	moves	1	natural 	1	n	0	0        	 	0.0	0	122.822731599997	122.922725500015	0.09999390001758
93818	100	331	stimuli/movNat/hotspring/mn_hotspring03.jpg      	1	5	1	mn_hotspring03.jpg   	movNat   	3	hotspring 	21	hotspring03 	212	not_alive	0	moves	1	natural 	1	n	0	0        	 	0.0	0	122.972735899995	123.0727281	0.0999922000046354
93968	100	332	stimuli/animals/eagle/animal_eagle10.jpg         	1	5	1	animal_eagle10.jpg   	animals  	0	eagle     	13	eagle10     	139	alive    	1	moves	1	natural 	1	n	0	0        	 	0.0	0	123.122738800012	123.222733100003	0.099994299991522
94118	100	333	stimuli/plant/cactus/plant_cactus02.jpg          	1	5	1	plant_cactus02.jpg   	plant    	6	cactus    	4	cactus02    	41	alive    	1	still	0	natural 	1	n	0	0        	 	0.0	0	123.272742900008	123.37273480001	0.099991900002351
94268	100	334	stimuli/nonmovNat/cliff/nmn_cliff08.jpg          	1	5	1	nmn_cliff08.jpg      	nonmovNat	5	cliff     	7	cliff08     	77	not_alive	0	still	0	natural 	1	n	0	0        	 	0.0	0	123.422747000004	123.522737899999	0.0999908999947365
94418	100	335	stimuli/movNat/river/mn_river03.jpg              	1	5	1	mn_river03.jpg       	movNat   	3	river     	29	river03     	292	not_alive	0	moves	1	natural 	1	n	0	0        	 	0.0	0	123.572747400001	123.67276690001	0.100019500008784
94568	100	336	stimuli/nonmovNat/cliff/nmn_cliff10.jpg          	1	5	1	nmn_cliff10.jpg      	nonmovNat	5	cliff     	7	cliff10     	79	not_alive	0	still	0	natural 	1	n	0	0        	 	0.0	0	123.722753400012	123.822749600018	0.0999962000059895
94718	100	337	stimuli/animals/cat/animal_cat03.jpg             	1	5	1	animal_cat03.jpg     	animals  	0	cat       	6	cat03       	62	alive    	1	moves	1	natural 	1	n	0	0        	 	0.0	0	123.872756700002	123.9727748	0.100018099998124
94868	100	338	stimuli/nonmovArt/clothespeg/nma_clothespeg06.jpg	1	5	1	nma_clothespeg06.jpg 	nonmovArt	4	clothespeg	8	clothespeg06	85	not_alive	0	still	0	artefact	0	n	0	0        	 	0.0	0	124.022759999993	124.122754700016	0.0999947000236716
95018	100	339	stimuli/nonmovNat/shell/nmn_shell10.jpg          	1	5	1	nmn_shell10.jpg      	nonmovNat	5	shell     	32	shell10     	329	not_alive	0	still	0	natural 	1	n	0	0        	 	0.0	0	124.17276429999	124.272760499996	0.0999962000059895
95168	100	340	stimuli/animals/dolphin/animal_dolphin03.jpg     	1	5	1	animal_dolphin03.jpg 	animals  	0	dolphin   	12	dolphin03   	122	alive    	1	moves	1	natural 	1	n	0	0        	 	0.0	0	124.322769799997	124.422761199996	0.0999913999985438
95318	100	341	stimuli/nonmovArt/lock/nma_lock03.jpg            	1	5	1	nma_lock03.jpg       	nonmovArt	4	lock      	24	lock03      	242	not_alive	0	still	0	artefact	0	n	0	0        	 	0.0	0	124.472786400002	124.572796499997	0.100010099995416
95468	100	342	stimuli/nonmovNat/sand/nmn_sand01.jpg            	1	5	1	nmn_sand01.jpg       	nonmovNat	5	sand      	31	sand01      	310	not_alive	0	still	0	natural 	1	n	0	0        	 	0.0	0	124.622778699995	124.72279639999	0.100017699995078
95618	100	343	stimuli/animals2/tiger/animal_tiger01.jpg        	1	5	1	animal_tiger01.jpg   	animals2 	1	tiger     	33	tiger01     	330	alive    	1	moves	1	natural 	1	n	0	0        	 	0.0	0	124.772779399995	124.872769600013	0.0999902000185102
95768	100	344	stimuli/plant2/clover/plant_clover08.jpg         	1	5	1	plant_clover08.jpg   	plant2   	7	clover    	9	clover08    	97	alive    	1	still	0	natural 	1	n	0	0        	 	0.0	0	124.922782600013	125.022776600003	0.0999939999892376
95918	100	345	stimuli/animals2/pigeon/animal_pigeon08.jpg      	1	5	1	animal_pigeon08.jpg  	animals2 	1	pigeon    	28	pigeon08    	287	alive    	1	moves	1	natural 	1	n	0	0        	 	0.0	0	125.072790000006	125.17278339999	0.0999933999846689
96068	100	346	stimuli/animals2/tiger/animal_tiger03.jpg        	1	5	1	animal_tiger03.jpg   	animals2 	1	tiger     	33	tiger03     	332	alive    	1	moves	1	natural 	1	n	0	0        	 	0.0	0	125.22279	125.322797000001	0.100007000000915
96218	100	347	stimuli/movArt/train/ma_train01.jpg              	1	5	1	ma_train01.jpg       	movArt   	2	train     	34	train01     	340	not_alive	0	moves	1	artefact	0	n	0	0        	 	0.0	0	125.372793399991	125.472799900017	0.100006500026211
96368	100	348	stimuli/plant/flower/plant_flower08.jpg          	1	5	1	plant_flower08.jpg   	plant    	6	flower    	16	flower08    	167	alive    	1	still	0	natural 	1	n	0	0        	 	0.0	0	125.522796900012	125.622792200011	0.0999952999991365
96518	100	349	stimuli/nonmovNat/sand/nmn_sand03.jpg            	1	5	1	nmn_sand03.jpg       	nonmovNat	5	sand      	31	sand03      	312	not_alive	0	still	0	natural 	1	n	0	0        	 	0.0	0	125.672805900016	125.772794999997	0.0999890999810304
96668	100	350	stimuli/nonmovArt/bench/nma_bench01.jpg          	1	5	1	nma_bench01.jpg      	nonmovArt	4	bench     	1	bench01     	10	not_alive	0	still	0	artefact	0	n	0	0        	 	0.0	0	125.822843100003	125.92280130001	0.0999582000076771
96818	100	351	stimuli/movArt/car/ma_car06.jpg                  	1	5	1	ma_car06.jpg         	movArt   	2	car       	5	car06       	55	not_alive	0	moves	1	artefact	0	n	0	0        	 	0.0	0	125.972827399994	126.072800800001	0.0999734000070021
96968	100	352	stimuli/movArt/boat/ma_boat03.jpg                	1	5	1	ma_boat03.jpg        	movArt   	2	boat      	2	boat03      	22	not_alive	0	moves	1	artefact	0	n	0	0        	 	0.0	0	126.122813499998	126.222807300015	0.0999938000168186
97118	100	353	stimuli/movNat/river/mn_river07.jpg              	1	5	1	mn_river07.jpg       	movNat   	3	river     	29	river07     	296	not_alive	0	moves	1	natural 	1	n	0	0        	 	0.0	0	126.272818099998	126.372809499997	0.0999913999985438
97268	100	354	stimuli/nonmovArt/clothespeg/nma_clothespeg10.jpg	1	5	1	nma_clothespeg10.jpg 	nonmovArt	4	clothespeg	8	clothespeg10	89	not_alive	0	still	0	artefact	0	n	0	0        	 	0.0	0	126.422819400002	126.522829599999	0.100010199996177
97418	100	355	stimuli/plant/tree/plant_tree09.jpg              	1	5	1	plant_tree09.jpg     	plant    	6	tree      	35	tree09      	358	alive    	1	still	0	natural 	1	n	0	0        	 	0.0	0	126.572853999998	126.672820200009	0.0999662000103854
97568	100	356	stimuli/nonmovArt/mug/nma_mug03.jpg              	1	5	1	nma_mug03.jpg        	nonmovArt	4	mug       	26	mug03       	262	not_alive	0	still	0	artefact	0	n	0	0        	 	0.0	0	126.722830500017	126.822822799993	0.099992299976293
97718	100	357	stimuli/plant/vine/plant_vine04.jpg              	1	5	1	plant_vine04.jpg     	plant    	6	vine      	36	vine04      	363	alive    	1	still	0	natural 	1	n	0	0        	 	0.0	0	126.872831599991	126.972827199992	0.0999956000014208
97868	100	358	stimuli/plant/cactus/plant_cactus09.jpg          	1	5	1	plant_cactus09.jpg   	plant    	6	cactus    	4	cactus09    	48	alive    	1	still	0	natural 	1	n	0	0        	 	0.0	0	127.022835100011	127.122828599997	0.0999934999854304
98018	100	359	stimuli/nonmovNat/rock/nmn_rock10.jpg            	1	5	1	nmn_rock10.jpg       	nonmovNat	5	rock      	30	rock10      	309	not_alive	0	still	0	natural 	1	n	0	0        	 	0.0	0	127.172847400012	127.272838000004	0.0999905999924522
98168	100	360	stimuli/animals/cat/animal_cat04.jpg             	1	5	1	animal_cat04.jpg     	animals  	0	cat       	6	cat04       	63	alive    	1	moves	1	natural 	1	n	0	0        	 	0.0	0	127.322856000013	127.422836200014	0.099980200000573
98318	100	361	stimuli/animals/dog/animal_dog01.jpg             	1	5	1	animal_dog01.jpg     	animals  	0	dog       	11	dog01       	110	alive    	1	moves	1	natural 	1	n	0	0        	 	0.0	0	127.472848200006	127.572839700006	0.0999914999993052
98468	100	362	stimuli/movNat/waves/mn_waves04.jpg              	1	5	1	mn_waves04.jpg       	movNat   	3	waves     	38	waves04     	383	not_alive	0	moves	1	natural 	1	n	0	0        	 	0.0	0	127.622850899992	127.722846799996	0.0999959000037052
98618	100	363	stimuli/plant/vine/plant_vine04.jpg              	1	5	1	plant_vine04.jpg     	plant    	6	vine      	36	vine04      	363	alive    	1	still	0	natural 	1	n	0	0        	 	0.0	0	127.772855499992	127.872848200001	0.0999927000084426
98768	100	364	stimuli/movArt/helicopter/ma_helicopter07.jpg    	1	5	1	ma_helicopter07.jpg  	movArt   	2	helicopter	19	helicopter07	196	not_alive	0	moves	1	artefact	0	n	0	0        	 	0.0	0	127.922859200014	128.022850900015	0.0999917000008281
98918	100	365	stimuli/nonmovArt/bench/nma_bench02.jpg          	1	5	1	nma_bench02.jpg      	nonmovArt	4	bench     	1	bench02     	11	not_alive	0	still	0	artefact	0	n	0	0        	 	0.0	0	128.072862300003	128.17285480001	0.0999925000069197
99068	100	366	stimuli/animals/cat/animal_cat10.jpg             	1	5	1	animal_cat10.jpg     	animals  	0	cat       	6	cat10       	69	alive    	1	moves	1	natural 	1	n	0	0        	 	0.0	0	128.222867100005	128.322867800016	0.100000700011151
99218	100	367	stimuli/movNat/hotspring/mn_hotspring05.jpg      	1	5	1	mn_hotspring05.jpg   	movNat   	3	hotspring 	21	hotspring05 	214	not_alive	0	moves	1	natural 	1	n	0	0        	 	0.0	0	128.372877200018	128.472868600016	0.0999913999985438
99368	100	368	stimuli/plant2/fern/plant_fern05.jpg             	1	5	1	plant_fern05.jpg     	plant2   	7	fern      	14	fern05      	144	alive    	1	still	0	natural 	1	n	0	0        	 	0.0	0	128.522880700009	128.622871700005	0.099990999995498
99518	100	369	stimuli/plant2/lemontree/plant_lemontree05.jpg   	1	5	1	plant_lemontree05.jpg	plant2   	7	lemontree 	22	lemontree05 	224	alive    	1	still	0	natural 	1	n	0	0        	 	0.0	0	128.672883299994	128.772878799995	0.0999955000006594
99668	100	370	stimuli/movArt/boat/ma_boat01.jpg                	1	5	1	ma_boat01.jpg        	movArt   	2	boat      	2	boat01      	20	not_alive	0	moves	1	artefact	0	n	0	0        	 	0.0	0	128.822883599991	128.922875699995	0.0999921000038739
99818	100	371	stimuli/plant/grass/plant_grass06.jpg            	1	5	1	plant_grass06.jpg    	plant    	6	grass     	17	grass06     	175	alive    	1	still	0	natural 	1	n	0	0        	 	0.0	0	128.972893700004	129.072879300016	0.0999856000125874
99968	100	372	stimuli/animals2/whale/animal_whale04.jpg        	1	5	1	animal_whale04.jpg   	animals2 	1	whale     	39	whale04     	393	alive    	1	moves	1	natural 	1	n	0	0        	 	0.0	0	129.122889099992	129.222882300004	0.0999932000122499
100118	100	373	stimuli/animals/dolphin/animal_dolphin06.jpg     	1	5	1	animal_dolphin06.jpg 	animals  	0	dolphin   	12	dolphin06   	125	alive    	1	moves	1	natural 	1	n	0	0        	 	0.0	0	129.272894299997	129.372885999997	0.0999917000008281
100268	100	374	stimuli/animals2/bee/animal_bee08.jpg            	1	5	1	animal_bee08.jpg     	animals2 	1	bee       	0	bee08       	7	alive    	1	moves	1	natural 	1	n	0	0        	 	0.0	0	129.422897600016	129.522915600013	0.100017999997362
100418	100	375	stimuli/movNat/waves/mn_waves01.jpg              	1	5	1	mn_waves01.jpg       	movNat   	3	waves     	38	waves01     	380	not_alive	0	moves	1	natural 	1	n	0	0        	 	0.0	0	129.572900300001	129.672893700015	0.0999934000137728
100568	100	376	stimuli/animals2/lemur/animal_lemur06.jpg        	1	5	1	animal_lemur06.jpg   	animals2 	1	lemur     	23	lemur06     	235	alive    	1	moves	1	natural 	1	n	0	0        	 	0.0	0	129.722903999995	129.822898700018	0.0999947000236716
100718	100	377	stimuli/movNat/river/mn_river10.jpg              	1	5	1	mn_river10.jpg       	movNat   	3	river     	29	river10     	299	not_alive	0	moves	1	natural 	1	n	1	0        	 	0.0	0	129.872908699996	129.972901000001	0.0999923000053968
100868	100	378	stimuli/nonmovNat/shell/nmn_shell08.jpg          	1	5	1	nmn_shell08.jpg      	nonmovNat	5	shell     	32	shell08     	327	not_alive	0	still	0	natural 	1	n	0	0        	 	0.0	0	130.02291259999	130.122903300013	0.0999907000223175
101018	100	379	stimuli/plant2/palmtree/plant_palmtree10.jpg     	1	5	1	plant_palmtree10.jpg 	plant2   	7	palmtree  	27	palmtree10  	279	alive    	1	still	0	natural 	1	n	0	1        	f	0.392025000008289	1	130.172931800014	130.272937700007	0.100005899992539
101168	100	380	stimuli/plant2/clover/plant_clover05.jpg         	1	5	1	plant_clover05.jpg   	plant2   	7	clover    	9	clover05    	94	alive    	1	still	0	natural 	1	n	0	0        	 	0.0	0	130.322920100007	130.422912900016	0.0999928000092041
101318	100	381	stimuli/movArt/helicopter/ma_helicopter08.jpg    	1	5	1	ma_helicopter08.jpg  	movArt   	2	helicopter	19	helicopter08	197	not_alive	0	moves	1	artefact	0	n	0	0        	 	0.0	0	130.472921200009	130.572914399992	0.099993199983146
101468	100	382	stimuli/movArt/car/ma_car05.jpg                  	1	5	1	ma_car05.jpg         	movArt   	2	car       	5	car05       	54	not_alive	0	moves	1	artefact	0	n	0	0        	 	0.0	0	130.622928099998	130.722919699998	0.0999916000000667
101618	100	383	stimuli/movArt/train/ma_train03.jpg              	1	5	1	ma_train03.jpg       	movArt   	2	train     	34	train03     	342	not_alive	0	moves	1	artefact	0	n	0	0        	 	0.0	0	130.77293050001	130.872937000007	0.100006499997107
101768	100	384	stimuli/nonmovNat/rock/nmn_rock10.jpg            	1	5	1	nmn_rock10.jpg       	nonmovNat	5	rock      	30	rock10      	309	not_alive	0	still	0	natural 	1	n	0	0        	 	0.0	0	130.922935300012	131.022947399993	0.100012099981541
101918	100	385	stimuli/movNat/fire/mn_fire06.jpg                	1	5	1	mn_fire06.jpg        	movNat   	3	fire      	15	fire06      	155	not_alive	0	moves	1	natural 	1	n	0	0        	 	0.0	0	131.072939300007	131.172931700014	0.0999924000061583
102068	100	386	stimuli/animals/eagle/animal_eagle06.jpg         	1	5	1	animal_eagle06.jpg   	animals  	0	eagle     	13	eagle06     	135	alive    	1	moves	1	natural 	1	n	0	0        	 	0.0	0	131.22294159999	131.322935600008	0.0999940000183415
102218	100	387	stimuli/nonmovNat/shell/nmn_shell02.jpg          	1	5	1	nmn_shell02.jpg      	nonmovNat	5	shell     	32	shell02     	321	not_alive	0	still	0	natural 	1	n	1	0        	 	0.0	0	131.372956200008	131.472954900004	0.0999986999959219
102368	100	388	stimuli/movNat/fire/mn_fire09.jpg                	1	5	1	mn_fire09.jpg        	movNat   	3	fire      	15	fire09      	158	not_alive	0	moves	1	natural 	1	n	0	0        	 	0.0	0	131.522950700019	131.622948100005	0.0999973999860231
102518	100	389	stimuli/animals2/whale/animal_whale10.jpg        	1	5	1	animal_whale10.jpg   	animals2 	1	whale     	39	whale10     	399	alive    	1	moves	1	natural 	1	n	0	0        	 	0.0	0	131.672952199995	131.772957000008	0.100004800013267
102668	100	390	stimuli/plant2/moss/plant_moss05.jpg             	1	5	1	plant_moss05.jpg     	plant2   	7	moss      	25	moss05      	254	alive    	1	still	0	natural 	1	n	0	1        	f	0.455933699995512	1	131.822959200013	131.922970999993	0.100011799979256
102818	100	391	stimuli/movNat/waterfall/mn_waterfall10.jpg      	1	5	1	mn_waterfall10.jpg   	movNat   	3	waterfall 	37	waterfall10 	379	not_alive	0	moves	1	natural 	1	n	0	0        	 	0.0	0	131.972980899998	132.072978300013	0.0999974000151269
102968	100	392	stimuli/plant/cactus/plant_cactus07.jpg          	1	5	1	plant_cactus07.jpg   	plant    	6	cactus    	4	cactus07    	46	alive    	1	still	0	natural 	1	n	0	0        	 	0.0	0	132.122985199996	132.222977900004	0.0999927000084426
103118	100	393	stimuli/movArt/car/ma_car03.jpg                  	1	5	1	ma_car03.jpg         	movArt   	2	car       	5	car03       	52	not_alive	0	moves	1	artefact	0	n	0	0        	 	0.0	0	132.272989699995	132.372981099994	0.0999913999985438
103268	100	394	stimuli/nonmovNat/shell/nmn_shell02.jpg          	1	5	1	nmn_shell02.jpg      	nonmovNat	5	shell     	32	shell02     	321	not_alive	0	still	0	natural 	1	n	0	0        	 	0.0	0	132.422992000007	132.522983900009	0.099991900002351
103418	100	395	stimuli/nonmovNat/crystal/nmn_crystal02.jpg      	1	5	1	nmn_crystal02.jpg    	nonmovNat	5	crystal   	10	crystal02   	101	not_alive	0	still	0	natural 	1	n	0	0        	 	0.0	0	132.572993300011	132.672990599996	0.0999972999852616
103568	100	396	stimuli/nonmovArt/headphones/nma_headphones05.jpg	1	5	1	nma_headphones05.jpg 	nonmovArt	4	headphones	18	headphones05	184	not_alive	0	still	0	artefact	0	n	0	0        	 	0.0	0	132.723003399995	132.823003800004	0.100000400008867
103718	100	397	stimuli/nonmovArt/clothespeg/nma_clothespeg02.jpg	1	5	1	nma_clothespeg02.jpg 	nonmovArt	4	clothespeg	8	clothespeg02	81	not_alive	0	still	0	artefact	0	n	0	0        	 	0.0	0	132.8730278	132.973004200001	0.0999764000007417
103868	100	398	stimuli/plant/vine/plant_vine09.jpg              	1	5	1	plant_vine09.jpg     	plant    	6	vine      	36	vine09      	368	alive    	1	still	0	natural 	1	n	0	0        	 	0.0	0	133.023015999992	133.123014800018	0.0999988000257872
104018	100	399	stimuli/movArt/bus/ma_bus01.jpg                  	1	5	1	ma_bus01.jpg         	movArt   	2	bus       	3	bus01       	30	not_alive	0	moves	1	artefact	0	n	0	0        	 	0.0	0	133.173017599998	133.273025000002	0.10000740000396
105685	100	400	stimuli/nonmovArt/lock/nma_lock04.jpg            	1	6	1	nma_lock04.jpg       	nonmovArt	4	lock      	24	lock04      	243	not_alive	0	still	0	artefact	0	n	0	0        	 	0.0	0	134.839709599997	134.939695400011	0.0999858000141103
105835	100	401	stimuli/plant/grass/plant_grass01.jpg            	1	6	1	plant_grass01.jpg    	plant    	6	grass     	17	grass01     	170	alive    	1	still	0	natural 	1	n	0	0        	 	0.0	0	134.989700400009	135.089695300005	0.0999948999960907
105985	100	402	stimuli/nonmovArt/mug/nma_mug02.jpg              	1	6	1	nma_mug02.jpg        	nonmovArt	4	mug       	26	mug02       	261	not_alive	0	still	0	artefact	0	n	0	0        	 	0.0	0	135.139707599999	135.239701000013	0.0999934000137728
106135	100	403	stimuli/nonmovNat/cliff/nmn_cliff03.jpg          	1	6	1	nmn_cliff03.jpg      	nonmovNat	5	cliff     	7	cliff03     	72	not_alive	0	still	0	natural 	1	n	0	0        	 	0.0	0	135.289709400007	135.389701500011	0.0999921000038739
106285	100	404	stimuli/animals2/tiger/animal_tiger06.jpg        	1	6	1	animal_tiger06.jpg   	animals2 	1	tiger     	33	tiger06     	335	alive    	1	moves	1	natural 	1	n	0	0        	 	0.0	0	135.439714500011	135.539707199991	0.0999926999793388
106435	100	405	stimuli/movArt/train/ma_train03.jpg              	1	6	1	ma_train03.jpg       	movArt   	2	train     	34	train03     	342	not_alive	0	moves	1	artefact	0	n	0	0        	 	0.0	0	135.589716599992	135.689711400017	0.0999948000244331
106585	100	406	stimuli/animals/horse/animal_horse06.jpg         	1	6	1	animal_horse06.jpg   	animals  	0	horse     	20	horse06     	205	alive    	1	moves	1	natural 	1	n	0	0        	 	0.0	0	135.739724100014	135.839718200004	0.0999940999899991
106735	100	407	stimuli/movNat/waterfall/mn_waterfall05.jpg      	1	6	1	mn_waterfall05.jpg   	movNat   	3	waterfall 	37	waterfall05 	374	not_alive	0	moves	1	natural 	1	n	0	0        	 	0.0	0	135.889725599991	135.989740299992	0.100014700001338
106885	100	408	stimuli/nonmovArt/clothespeg/nma_clothespeg04.jpg	1	6	1	nma_clothespeg04.jpg 	nonmovArt	4	clothespeg	8	clothespeg04	83	not_alive	0	still	0	artefact	0	n	0	0        	 	0.0	0	136.039732100005	136.139725200017	0.0999931000114884
107035	100	409	stimuli/movArt/bus/ma_bus05.jpg                  	1	6	1	ma_bus05.jpg         	movArt   	2	bus       	3	bus05       	34	not_alive	0	moves	1	artefact	0	n	0	0        	 	0.0	0	136.1897321	136.289724600007	0.0999925000069197
107185	100	410	stimuli/movNat/river/mn_river10.jpg              	1	6	1	mn_river10.jpg       	movNat   	3	river     	29	river10     	299	not_alive	0	moves	1	natural 	1	n	0	0        	 	0.0	0	136.339737100003	136.439731899998	0.0999947999953292
107335	100	411	stimuli/animals/eagle/animal_eagle04.jpg         	1	6	1	animal_eagle04.jpg   	animals  	0	eagle     	13	eagle04     	133	alive    	1	moves	1	natural 	1	n	0	0        	 	0.0	0	136.489740299992	136.589733600005	0.0999933000130113
107485	100	412	stimuli/nonmovNat/sand/nmn_sand07.jpg            	1	6	1	nmn_sand07.jpg       	nonmovNat	5	sand      	31	sand07      	316	not_alive	0	still	0	natural 	1	n	0	0        	 	0.0	0	136.639745599998	136.739765700011	0.100020100013353
107635	100	413	stimuli/nonmovArt/clothespeg/nma_clothespeg05.jpg	1	6	1	nma_clothespeg05.jpg 	nonmovArt	4	clothespeg	8	clothespeg05	84	not_alive	0	still	0	artefact	0	n	0	0        	 	0.0	0	136.789762200002	136.889739200007	0.0999770000053104
107785	100	414	stimuli/plant/tree/plant_tree02.jpg              	1	6	1	plant_tree02.jpg     	plant    	6	tree      	35	tree02      	351	alive    	1	still	0	natural 	1	n	0	0        	 	0.0	0	136.939754999999	137.039748600015	0.0999936000152957
