onset	duration	eventnumber	stimulus_file	blockno	trialno	is_faststream	stim	stim_category	category_number	exemplar	exemplar_number	image_name	image_number	aliveness	aliveness_bin	movement	movement_bin	naturalness	naturalness_bin	response_hand_alive	istarget	response	keypressed	rt	correct	time_stimon	time_stimoff	stimdur
49835	100	0	stimuli/plant/grass/plant_grass04.jpg            	1	1	1	plant_grass04.jpg    	plant    	6	grass     	17	grass04     	173	alive    	1	still	0	natural 	1	n	0	0        	 	0.0	0	71.7867333000177	71.8866873999941	0.0999540999764577
49985	100	1	stimuli/movArt/bus/ma_bus02.jpg                  	1	1	1	ma_bus02.jpg         	movArt   	2	bus       	3	bus02       	31	not_alive	0	moves	1	artefact	0	n	0	0        	 	0.0	0	71.9367065000115	72.0366892999737	0.099982799962163
50134	100	2	stimuli/animals/dog/animal_dog01.jpg             	1	1	1	animal_dog01.jpg     	animals  	0	dog       	11	dog01       	110	alive    	1	moves	1	natural 	1	n	0	0        	 	0.0	0	72.0867010999937	72.1866940999753	0.0999929999816231
50284	100	3	stimuli/movArt/train/ma_train03.jpg              	1	1	1	ma_train03.jpg       	movArt   	2	train     	34	train03     	342	not_alive	0	moves	1	artefact	0	n	0	0        	 	0.0	0	72.2367022999679	72.3366980999708	0.0999958000029437
50435	100	4	stimuli/plant2/lemontree/plant_lemontree04.jpg   	1	1	1	plant_lemontree04.jpg	plant2   	7	lemontree 	22	lemontree04 	223	alive    	1	still	0	natural 	1	n	0	0        	 	0.0	0	72.3867245999863	72.4867021999671	0.0999775999807753
50585	100	5	stimuli/plant/grass/plant_grass01.jpg            	1	1	1	plant_grass01.jpg    	plant    	6	grass     	17	grass01     	170	alive    	1	still	0	natural 	1	n	0	0        	 	0.0	0	72.5367404000135	72.636705700017	0.0999653000035323
50735	100	6	stimuli/animals/dolphin/animal_dolphin01.jpg     	1	1	1	animal_dolphin01.jpg 	animals  	0	dolphin   	12	dolphin01   	120	alive    	1	moves	1	natural 	1	n	0	0        	 	0.0	0	72.6867177999811	72.7867175000138	0.0999997000326402
50885	100	7	stimuli/plant2/palmtree/plant_palmtree05.jpg     	1	1	1	plant_palmtree05.jpg 	plant2   	7	palmtree  	27	palmtree05  	274	alive    	1	still	0	natural 	1	n	0	0        	 	0.0	0	72.8369767999975	72.9367096999777	0.0997328999801539
51035	100	8	stimuli/plant/grass/plant_grass03.jpg            	1	1	1	plant_grass03.jpg    	plant    	6	grass     	17	grass03     	172	alive    	1	still	0	natural 	1	n	0	0        	 	0.0	0	72.9867183999741	73.0867349999607	0.100016599986702
51185	100	9	stimuli/movArt/car/ma_car08.jpg                  	1	1	1	ma_car08.jpg         	movArt   	2	car       	5	car08       	57	not_alive	0	moves	1	artefact	0	n	0	0        	 	0.0	0	73.1367446999648	73.2367126999889	0.0999680000240914
51335	100	10	stimuli/movNat/waterfall/mn_waterfall03.jpg      	1	1	1	mn_waterfall03.jpg   	movNat   	3	waterfall 	37	waterfall03 	372	not_alive	0	moves	1	natural 	1	n	0	0        	 	0.0	0	73.2867393000051	73.3867181999958	0.0999788999906741
51485	100	11	stimuli/plant/vine/plant_vine03.jpg              	1	1	1	plant_vine03.jpg     	plant    	6	vine      	36	vine03      	362	alive    	1	still	0	natural 	1	n	0	0        	 	0.0	0	73.4367265999899	73.5367274999735	0.10000089998357
51635	100	12	stimuli/nonmovArt/lock/nma_lock01.jpg            	1	1	1	nma_lock01.jpg       	nonmovArt	4	lock      	24	lock01      	240	not_alive	0	still	0	artefact	0	n	0	0        	 	0.0	0	73.5867523999768	73.6867272999953	0.0999749000184238
51785	100	13	stimuli/animals2/pigeon/animal_pigeon08.jpg      	1	1	1	animal_pigeon08.jpg  	animals2 	1	pigeon    	28	pigeon08    	287	alive    	1	moves	1	natural 	1	n	0	0        	 	0.0	0	73.7367559999693	73.8367281999672	0.0999721999978647
51935	100	14	stimuli/plant2/fern/plant_fern07.jpg             	1	1	1	plant_fern07.jpg     	plant2   	7	fern      	14	fern07      	146	alive    	1	still	0	natural 	1	n	0	0        	 	0.0	0	73.8867406999925	73.9867522999993	0.100011600006837
52085	100	15	stimuli/plant/cactus/plant_cactus08.jpg          	1	1	1	plant_cactus08.jpg   	plant    	6	cactus    	4	cactus08    	47	alive    	1	still	0	natural 	1	n	0	0        	 	0.0	0	74.0367635000148	74.1367414999986	0.0999779999838211
52235	100	16	stimuli/animals/cat/animal_cat10.jpg             	1	1	1	animal_cat10.jpg     	animals  	0	cat       	6	cat10       	69	alive    	1	moves	1	natural 	1	n	0	0        	 	0.0	0	74.1867486999836	74.2867405000143	0.0999918000306934
52385	100	17	stimuli/animals/cat/animal_cat01.jpg             	1	1	1	animal_cat01.jpg     	animals  	0	cat       	6	cat01       	60	alive    	1	moves	1	natural 	1	n	0	0        	 	0.0	0	74.3367534999852	74.4367442000075	0.0999907000223175
52535	100	18	stimuli/animals/horse/animal_horse10.jpg         	1	1	1	animal_horse10.jpg   	animals  	0	horse     	20	horse10     	209	alive    	1	moves	1	natural 	1	n	0	0        	 	0.0	0	74.4867580999853	74.5867653000168	0.100007200031541
52685	100	19	stimuli/plant/vine/plant_vine06.jpg              	1	1	1	plant_vine06.jpg     	plant    	6	vine      	36	vine06      	365	alive    	1	still	0	natural 	1	n	0	0        	 	0.0	0	74.6367599999649	74.7367525000009	0.0999925000360236
52835	100	20	stimuli/nonmovArt/clothespeg/nma_clothespeg05.jpg	1	1	1	nma_clothespeg05.jpg 	nonmovArt	4	clothespeg	8	clothespeg05	84	not_alive	0	still	0	artefact	0	n	0	0        	 	0.0	0	74.7867652999703	74.8867579000071	0.099992600036785
52985	100	21	stimuli/movArt/bus/ma_bus01.jpg                  	1	1	1	ma_bus01.jpg         	movArt   	2	bus       	3	bus01       	30	not_alive	0	moves	1	artefact	0	n	0	0        	 	0.0	0	74.9367889999994	75.0367616000003	0.0999726000009105
53135	100	22	stimuli/movNat/river/mn_river05.jpg              	1	1	1	mn_river05.jpg       	movNat   	3	river     	29	river05     	294	not_alive	0	moves	1	natural 	1	n	0	0        	 	0.0	0	75.086773100018	75.1867655999958	0.0999924999778159
53285	100	23	stimuli/animals/dog/animal_dog06.jpg             	1	1	1	animal_dog06.jpg     	animals  	0	dog       	11	dog06       	115	alive    	1	moves	1	natural 	1	n	0	0        	 	0.0	0	75.2367742999922	75.3367702999967	0.0999960000044666
53435	100	24	stimuli/plant/tree/plant_tree02.jpg              	1	1	1	plant_tree02.jpg     	plant    	6	tree      	35	tree02      	351	alive    	1	still	0	natural 	1	n	0	0        	 	0.0	0	75.3867796999984	75.4867945999722	0.100014899973758
53585	100	25	stimuli/nonmovArt/bench/nma_bench03.jpg          	1	1	1	nma_bench03.jpg      	nonmovArt	4	bench     	1	bench03     	12	not_alive	0	still	0	artefact	0	n	0	0        	 	0.0	0	75.5367838999955	75.636796900013	0.100013000017498
53735	100	26	stimuli/movArt/car/ma_car07.jpg                  	1	1	1	ma_car07.jpg         	movArt   	2	car       	5	car07       	56	not_alive	0	moves	1	artefact	0	n	0	0        	 	0.0	0	75.6867880999925	75.7867825999856	0.0999944999930449
53885	100	27	stimuli/movNat/hotspring/mn_hotspring09.jpg      	1	1	1	mn_hotspring09.jpg   	movNat   	3	hotspring 	21	hotspring09 	218	not_alive	0	moves	1	natural 	1	n	0	0        	 	0.0	0	75.8367906999774	75.9367862999788	0.0999956000014208
54035	100	28	stimuli/animals/dog/animal_dog01.jpg             	1	1	1	animal_dog01.jpg     	animals  	0	dog       	11	dog01       	110	alive    	1	moves	1	natural 	1	n	0	0        	 	0.0	0	75.9868140000035	76.0868031000136	0.0999891000101343
54185	100	29	stimuli/animals/horse/animal_horse01.jpg         	1	1	1	animal_horse01.jpg   	animals  	0	horse     	20	horse01     	200	alive    	1	moves	1	natural 	1	n	0	0        	 	0.0	0	76.1368171999929	76.2368187999818	0.1000015999889
54335	100	30	stimuli/plant2/lemontree/plant_lemontree01.jpg   	1	1	1	plant_lemontree01.jpg	plant2   	7	lemontree 	22	lemontree01 	220	alive    	1	still	0	natural 	1	n	1	0        	 	0.0	0	76.2868206999847	76.3867993999738	0.0999786999891512
54485	100	31	stimuli/movNat/river/mn_river03.jpg              	1	1	1	mn_river03.jpg       	movNat   	3	river     	29	river03     	292	not_alive	0	moves	1	natural 	1	n	0	0        	 	0.0	0	76.4368036999949	76.5368016000139	0.0999979000189342
54635	100	32	stimuli/movArt/train/ma_train07.jpg              	1	1	1	ma_train07.jpg       	movArt   	2	train     	34	train07     	346	not_alive	0	moves	1	artefact	0	n	1	1        	f	0.0919831999926828	1	76.586814099981	76.6868069999618	0.0999928999808617
54785	100	33	stimuli/animals/eagle/animal_eagle03.jpg         	1	1	1	animal_eagle03.jpg   	animals  	0	eagle     	13	eagle03     	132	alive    	1	moves	1	natural 	1	n	0	0        	 	0.0	0	76.7368155000149	76.8368209999753	0.100005499960389
54935	100	34	stimuli/nonmovArt/headphones/nma_headphones03.jpg	1	1	1	nma_headphones03.jpg 	nonmovArt	4	headphones	18	headphones03	182	not_alive	0	still	0	artefact	0	n	0	0        	 	0.0	0	76.8868377999752	76.9868320999667	0.099994299991522
55085	100	35	stimuli/plant2/lemontree/plant_lemontree07.jpg   	1	1	1	plant_lemontree07.jpg	plant2   	7	lemontree 	22	lemontree07 	226	alive    	1	still	0	natural 	1	n	0	0        	 	0.0	0	77.0368324000156	77.136820100015	0.099987699999474
55235	100	36	stimuli/nonmovNat/cliff/nmn_cliff06.jpg          	1	1	1	nmn_cliff06.jpg      	nonmovNat	5	cliff     	7	cliff06     	75	not_alive	0	still	0	natural 	1	n	0	0        	 	0.0	0	77.1868266999954	77.2868220999953	0.0999953999998979
55385	100	37	stimuli/nonmovNat/crystal/nmn_crystal05.jpg      	1	1	1	nmn_crystal05.jpg    	nonmovNat	5	crystal   	10	crystal05   	104	not_alive	0	still	0	natural 	1	n	0	0        	 	0.0	0	77.3368412000127	77.4368328999844	0.0999916999717243
55535	100	38	stimuli/plant2/palmtree/plant_palmtree03.jpg     	1	1	1	plant_palmtree03.jpg 	plant2   	7	palmtree  	27	palmtree03  	272	alive    	1	still	0	natural 	1	n	0	0        	 	0.0	0	77.486838700017	77.5868373999838	0.0999986999668181
55685	100	39	stimuli/nonmovNat/cliff/nmn_cliff06.jpg          	1	1	1	nmn_cliff06.jpg      	nonmovNat	5	cliff     	7	cliff06     	75	not_alive	0	still	0	natural 	1	n	0	0        	 	0.0	0	77.6368666999624	77.7368438999983	0.0999772000359371
55835	100	40	stimuli/animals2/pigeon/animal_pigeon05.jpg      	1	1	1	animal_pigeon05.jpg  	animals2 	1	pigeon    	28	pigeon05    	284	alive    	1	moves	1	natural 	1	n	0	0        	 	0.0	0	77.7868440999882	77.8868524999707	0.100008399982471
55985	100	41	stimuli/animals2/bee/animal_bee04.jpg            	1	1	1	animal_bee04.jpg     	animals2 	1	bee       	0	bee04       	3	alive    	1	moves	1	natural 	1	n	0	0        	 	0.0	0	77.9368488999898	78.0368588999845	0.100009999994654
56135	100	42	stimuli/nonmovNat/rock/nmn_rock09.jpg            	1	1	1	nmn_rock09.jpg       	nonmovNat	5	rock      	30	rock09      	308	not_alive	0	still	0	natural 	1	n	0	0        	 	0.0	0	78.0868795000133	78.1868470999762	0.099967599962838
56285	100	43	stimuli/animals2/whale/animal_whale03.jpg        	1	1	1	animal_whale03.jpg   	animals2 	1	whale     	39	whale03     	392	alive    	1	moves	1	natural 	1	n	0	0        	 	0.0	0	78.2368588999962	78.3368514999747	0.0999925999785774
56435	100	44	stimuli/nonmovNat/sand/nmn_sand03.jpg            	1	1	1	nmn_sand03.jpg       	nonmovNat	5	sand      	31	sand03      	312	not_alive	0	still	0	natural 	1	n	0	0        	 	0.0	0	78.3868588999612	78.4868542000186	0.0999953000573441
56585	100	45	stimuli/nonmovArt/mug/nma_mug01.jpg              	1	1	1	nma_mug01.jpg        	nonmovArt	4	mug       	26	mug01       	260	not_alive	0	still	0	artefact	0	n	0	0        	 	0.0	0	78.5368634999613	78.6368586000172	0.0999951000558212
56735	100	46	stimuli/movNat/waterfall/mn_waterfall09.jpg      	1	1	1	mn_waterfall09.jpg   	movNat   	3	waterfall 	37	waterfall09 	378	not_alive	0	moves	1	natural 	1	n	0	0        	 	0.0	0	78.6868844999699	78.7868635999621	0.099979099992197
56885	100	47	stimuli/nonmovNat/crystal/nmn_crystal01.jpg      	1	1	1	nmn_crystal01.jpg    	nonmovNat	5	crystal   	10	crystal01   	100	not_alive	0	still	0	natural 	1	n	0	0        	 	0.0	0	78.8368970999727	78.936862099974	0.099965000001248
57035	100	48	stimuli/movArt/train/ma_train02.jpg              	1	1	1	ma_train02.jpg       	movArt   	2	train     	34	train02     	341	not_alive	0	moves	1	artefact	0	n	0	0        	 	0.0	0	78.9868748000008	79.086880799965	0.100005999964196
57185	100	49	stimuli/movArt/helicopter/ma_helicopter01.jpg    	1	1	1	ma_helicopter01.jpg  	movArt   	2	helicopter	19	helicopter01	190	not_alive	0	moves	1	artefact	0	n	0	0        	 	0.0	0	79.1368794000009	79.2368731999886	0.0999937999877147
57335	100	50	stimuli/plant2/clover/plant_clover02.jpg         	1	1	1	plant_clover02.jpg   	plant2   	7	clover    	9	clover02    	91	alive    	1	still	0	natural 	1	n	0	0        	 	0.0	0	79.2868841000018	79.3868749999674	0.0999908999656327
57485	100	51	stimuli/plant2/fern/plant_fern01.jpg             	1	1	1	plant_fern01.jpg     	plant2   	7	fern      	14	fern01      	140	alive    	1	still	0	natural 	1	n	0	0        	 	0.0	0	79.4368931999779	79.5368796999683	0.0999864999903366
57635	100	52	stimuli/plant2/moss/plant_moss10.jpg             	1	1	1	plant_moss10.jpg     	plant2   	7	moss      	25	moss10      	259	alive    	1	still	0	natural 	1	n	0	0        	 	0.0	0	79.5869038999663	79.6868849999737	0.099981100007426
57785	100	53	stimuli/animals2/lemur/animal_lemur03.jpg        	1	1	1	animal_lemur03.jpg   	animals2 	1	lemur     	23	lemur03     	232	alive    	1	moves	1	natural 	1	n	0	0        	 	0.0	0	79.7368936999701	79.8368928999989	0.099999200028833
57935	100	54	stimuli/animals/eagle/animal_eagle06.jpg         	1	1	1	animal_eagle06.jpg   	animals  	0	eagle     	13	eagle06     	135	alive    	1	moves	1	natural 	1	n	0	0        	 	0.0	0	79.886898799974	79.9868889999925	0.0999902000185102
58085	100	55	stimuli/animals2/whale/animal_whale05.jpg        	1	1	1	animal_whale05.jpg   	animals2 	1	whale     	39	whale05     	394	alive    	1	moves	1	natural 	1	n	0	0        	 	0.0	0	80.0368847000063	80.1368954000063	0.100010699999984
58235	100	56	stimuli/movNat/waves/mn_waves06.jpg              	1	1	1	mn_waves06.jpg       	movNat   	3	waves     	38	waves06     	385	not_alive	0	moves	1	natural 	1	n	1	0        	 	0.0	0	80.1869094999856	80.2868998000049	0.0999903000192717
58385	100	57	stimuli/movArt/helicopter/ma_helicopter09.jpg    	1	1	1	ma_helicopter09.jpg  	movArt   	2	helicopter	19	helicopter09	198	not_alive	0	moves	1	artefact	0	n	0	0        	 	0.0	0	80.3369112999644	80.4369189999998	0.100007700035349
58535	100	58	stimuli/movNat/waves/mn_waves03.jpg              	1	1	1	mn_waves03.jpg       	movNat   	3	waves     	38	waves03     	382	not_alive	0	moves	1	natural 	1	n	0	1        	f	0.391991699987557	1	80.4869153000182	80.5869221999892	0.100006899971049
58685	100	59	stimuli/nonmovNat/shell/nmn_shell08.jpg          	1	1	1	nmn_shell08.jpg      	nonmovNat	5	shell     	32	shell08     	327	not_alive	0	still	0	natural 	1	n	0	0        	 	0.0	0	80.6369218999753	80.7369118999923	0.0999900000169873
58835	100	60	stimuli/animals2/whale/animal_whale06.jpg        	1	1	1	animal_whale06.jpg   	animals2 	1	whale     	39	whale06     	395	alive    	1	moves	1	natural 	1	n	0	0        	 	0.0	0	80.7869243000168	80.8869380999822	0.100013799965382
58985	100	61	stimuli/plant/flower/plant_flower03.jpg          	1	1	1	plant_flower03.jpg   	plant    	6	flower    	16	flower03    	162	alive    	1	still	0	natural 	1	n	0	0        	 	0.0	0	80.9369267000002	81.0369272999815	0.100000599981286
59135	100	62	stimuli/nonmovArt/clothespeg/nma_clothespeg04.jpg	1	1	1	nma_clothespeg04.jpg 	nonmovArt	4	clothespeg	8	clothespeg04	83	not_alive	0	still	0	artefact	0	n	1	0        	 	0.0	0	81.0869313000003	81.1869228999713	0.0999915999709628
59285	100	63	stimuli/nonmovNat/rock/nmn_rock08.jpg            	1	1	1	nmn_rock08.jpg       	nonmovNat	5	rock      	30	rock08      	307	not_alive	0	still	0	natural 	1	n	0	0        	 	0.0	0	81.2369482999784	81.3369449999882	0.0999967000097968
59435	100	64	stimuli/movNat/hotspring/mn_hotspring06.jpg      	1	1	1	mn_hotspring06.jpg   	movNat   	3	hotspring 	21	hotspring06 	215	not_alive	0	moves	1	natural 	1	n	0	0        	 	0.0	0	81.3869391999906	81.4869312999654	0.0999920999747701
59585	100	65	stimuli/animals2/bee/animal_bee03.jpg            	1	1	1	animal_bee03.jpg     	animals2 	1	bee       	0	bee03       	2	alive    	1	moves	1	natural 	1	n	0	1        	f	0.450201899977401	1	81.5369445999968	81.6369603999774	0.100015799980611
59735	100	66	stimuli/plant2/palmtree/plant_palmtree07.jpg     	1	1	1	plant_palmtree07.jpg 	plant2   	7	palmtree  	27	palmtree07  	276	alive    	1	still	0	natural 	1	n	0	0        	 	0.0	0	81.6869475999847	81.7869823999936	0.100034800008871
59885	100	67	stimuli/animals2/lemur/animal_lemur07.jpg        	1	1	1	animal_lemur07.jpg   	animals2 	1	lemur     	23	lemur07     	236	alive    	1	moves	1	natural 	1	n	0	0        	 	0.0	0	81.8369819999789	81.9369430000079	0.0999610000289977
60035	100	68	stimuli/plant/tree/plant_tree05.jpg              	1	1	1	plant_tree05.jpg     	plant    	6	tree      	35	tree05      	354	alive    	1	still	0	natural 	1	n	0	0        	 	0.0	0	81.9869535999605	82.0869637000142	0.100010100053623
60185	100	69	stimuli/movNat/fire/mn_fire04.jpg                	1	1	1	mn_fire04.jpg        	movNat   	3	fire      	15	fire04      	153	not_alive	0	moves	1	natural 	1	n	0	0        	 	0.0	0	82.1369589999667	82.2369498999906	0.0999909000238404
60335	100	70	stimuli/animals/cat/animal_cat09.jpg             	1	1	1	animal_cat09.jpg     	animals  	0	cat       	6	cat09       	68	alive    	1	moves	1	natural 	1	n	0	0        	 	0.0	0	82.2869627999607	82.3869912999798	0.100028500019107
60485	100	71	stimuli/nonmovNat/shell/nmn_shell04.jpg          	1	1	1	nmn_shell04.jpg      	nonmovNat	5	shell     	32	shell04     	323	not_alive	0	still	0	natural 	1	n	0	0        	 	0.0	0	82.4369654000038	82.5369887999841	0.100023399980273
60635	100	72	stimuli/animals/dolphin/animal_dolphin04.jpg     	1	1	1	animal_dolphin04.jpg 	animals  	0	dolphin   	12	dolphin04   	123	alive    	1	moves	1	natural 	1	n	0	0        	 	0.0	0	82.5869706000085	82.6869780999841	0.100007499975618
60785	100	73	stimuli/movArt/helicopter/ma_helicopter06.jpg    	1	1	1	ma_helicopter06.jpg  	movArt   	2	helicopter	19	helicopter06	195	not_alive	0	moves	1	artefact	0	n	0	0        	 	0.0	0	82.7369731999934	82.8369690999971	0.0999959000037052
60935	100	74	stimuli/plant2/clover/plant_clover01.jpg         	1	1	1	plant_clover01.jpg   	plant2   	7	clover    	9	clover01    	90	alive    	1	still	0	natural 	1	n	0	0        	 	0.0	0	82.8869766999851	82.9869688000181	0.0999921000329778
61085	100	75	stimuli/nonmovNat/rock/nmn_rock02.jpg            	1	1	1	nmn_rock02.jpg       	nonmovNat	5	rock      	30	rock02      	301	not_alive	0	still	0	natural 	1	n	0	0        	 	0.0	0	83.0369819999905	83.1369973999681	0.100015399977565
61235	100	76	stimuli/plant2/moss/plant_moss02.jpg             	1	1	1	plant_moss02.jpg     	plant2   	7	moss      	25	moss02      	251	alive    	1	still	0	natural 	1	n	0	0        	 	0.0	0	83.1869859999861	83.2869943999685	0.100008399982471
61385	100	77	stimuli/nonmovArt/clothespeg/nma_clothespeg01.jpg	1	1	1	nma_clothespeg01.jpg 	nonmovArt	4	clothespeg	8	clothespeg01	80	not_alive	0	still	0	artefact	0	n	0	0        	 	0.0	0	83.3369905999862	83.4369821000146	0.0999915000284091
61535	100	78	stimuli/nonmovArt/lock/nma_lock05.jpg            	1	1	1	nma_lock05.jpg       	nonmovArt	4	lock      	24	lock05      	244	not_alive	0	still	0	artefact	0	n	0	0        	 	0.0	0	83.4869930999703	83.5869858000078	0.0999927000375465
61685	100	79	stimuli/nonmovArt/headphones/nma_headphones07.jpg	1	1	1	nma_headphones07.jpg 	nonmovArt	4	headphones	18	headphones07	186	not_alive	0	still	0	artefact	0	n	0	0        	 	0.0	0	83.637009099999	83.7369891999988	0.0999800999998115
66368	100	80	stimuli/animals2/bee/animal_bee02.jpg            	1	2	1	animal_bee02.jpg     	animals2 	1	bee       	0	bee02       	1	alive    	1	moves	1	natural 	1	n	0	0        	 	0.0	0	88.3204662000062	88.4204539000057	0.099987699999474
66518	100	81	stimuli/animals2/pigeon/animal_pigeon10.jpg      	1	2	1	animal_pigeon10.jpg  	animals2 	1	pigeon    	28	pigeon10    	289	alive    	1	moves	1	natural 	1	n	0	0        	 	0.0	0	88.4704772999976	88.570468699967	0.09999139996944
66668	100	82	stimuli/nonmovArt/bench/nma_bench02.jpg          	1	2	1	nma_bench02.jpg      	nonmovArt	4	bench     	1	bench02     	11	not_alive	0	still	0	artefact	0	n	0	0        	 	0.0	0	88.6204700999661	88.7204614999937	0.0999914000276476
66818	100	83	stimuli/animals2/tiger/animal_tiger09.jpg        	1	2	1	animal_tiger09.jpg   	animals2 	1	tiger     	33	tiger09     	338	alive    	1	moves	1	natural 	1	n	0	0        	 	0.0	0	88.7704743999639	88.8704652999877	0.0999909000238404
66968	100	84	stimuli/nonmovArt/mug/nma_mug05.jpg              	1	2	1	nma_mug05.jpg        	nonmovArt	4	mug       	26	mug05       	264	not_alive	0	still	0	artefact	0	n	0	0        	 	0.0	0	88.9204767000047	89.0204691999825	0.0999924999778159
67118	100	85	stimuli/nonmovNat/crystal/nmn_crystal02.jpg      	1	2	1	nmn_crystal02.jpg    	nonmovNat	5	crystal   	10	crystal02   	101	not_alive	0	still	0	natural 	1	n	0	0        	 	0.0	0	89.070479099988	89.170473599981	0.0999944999930449
67268	100	86	stimuli/plant/flower/plant_flower02.jpg          	1	2	1	plant_flower02.jpg   	plant    	6	flower    	16	flower02    	161	alive    	1	still	0	natural 	1	n	0	0        	 	0.0	0	89.220484999998	89.320491499966	0.100006499968003
67418	100	87	stimuli/plant/cactus/plant_cactus01.jpg          	1	2	1	plant_cactus01.jpg   	plant    	6	cactus    	4	cactus01    	40	alive    	1	still	0	natural 	1	n	0	0        	 	0.0	0	89.3704901000019	89.4704832999851	0.099993199983146
67568	100	88	stimuli/movArt/boat/ma_boat06.jpg                	1	2	1	ma_boat06.jpg        	movArt   	2	boat      	2	boat06      	25	not_alive	0	moves	1	artefact	0	n	0	0        	 	0.0	0	89.5204920999822	89.6204885999905	0.0999965000082739
67718	100	89	stimuli/animals2/tiger/animal_tiger03.jpg        	1	2	1	animal_tiger03.jpg   	animals2 	1	tiger     	33	tiger03     	332	alive    	1	moves	1	natural 	1	n	0	0        	 	0.0	0	89.6704954999732	89.770483899978	0.0999884000048041
67868	100	90	stimuli/movNat/waterfall/mn_waterfall07.jpg      	1	2	1	mn_waterfall07.jpg   	movNat   	3	waterfall 	37	waterfall07 	376	not_alive	0	moves	1	natural 	1	n	0	0        	 	0.0	0	89.8204926999751	89.9204855000134	0.0999928000383079
68018	100	91	stimuli/animals/eagle/animal_eagle09.jpg         	1	2	1	animal_eagle09.jpg   	animals  	0	eagle     	13	eagle09     	138	alive    	1	moves	1	natural 	1	n	1	0        	 	0.0	0	89.9704971999745	90.0705136000179	0.100016400043387
68168	100	92	stimuli/movArt/boat/ma_boat08.jpg                	1	2	1	ma_boat08.jpg        	movArt   	2	boat      	2	boat08      	27	not_alive	0	moves	1	artefact	0	n	0	0        	 	0.0	0	90.1205036999891	90.2204967999714	0.0999930999823846
68318	100	93	stimuli/movArt/bus/ma_bus10.jpg                  	1	2	1	ma_bus10.jpg         	movArt   	2	bus       	3	bus10       	39	not_alive	0	moves	1	artefact	0	n	0	1        	f	0.392000599997118	1	90.2705074999831	90.3705025999807	0.0999950999976136
68468	100	94	stimuli/nonmovArt/bench/nma_bench07.jpg          	1	2	1	nma_bench07.jpg      	nonmovArt	4	bench     	1	bench07     	16	not_alive	0	still	0	artefact	0	n	0	0        	 	0.0	0	90.4205100999679	90.5205034000101	0.0999933000421152
68618	100	95	stimuli/animals/dolphin/animal_dolphin03.jpg     	1	2	1	animal_dolphin03.jpg 	animals  	0	dolphin   	12	dolphin03   	122	alive    	1	moves	1	natural 	1	n	0	0        	 	0.0	0	90.5705148999696	90.670506399998	0.0999915000284091
68768	100	96	stimuli/animals2/tiger/animal_tiger03.jpg        	1	2	1	animal_tiger03.jpg   	animals2 	1	tiger     	33	tiger03     	332	alive    	1	moves	1	natural 	1	n	0	0        	 	0.0	0	90.7205179000157	90.82053919998	0.100021299964283
68918	100	97	stimuli/nonmovArt/headphones/nma_headphones01.jpg	1	2	1	nma_headphones01.jpg 	nonmovArt	4	headphones	18	headphones01	180	not_alive	0	still	0	artefact	0	n	0	0        	 	0.0	0	90.8705207000021	90.9705142999883	0.0999935999861918
69068	100	98	stimuli/animals/horse/animal_horse10.jpg         	1	2	1	animal_horse10.jpg   	animals  	0	horse     	20	horse10     	209	alive    	1	moves	1	natural 	1	n	0	0        	 	0.0	0	91.0205280999653	91.1205189999891	0.0999909000238404
69218	100	99	stimuli/nonmovNat/shell/nmn_shell08.jpg          	1	2	1	nmn_shell08.jpg      	nonmovNat	5	shell     	32	shell08     	327	not_alive	0	still	0	natural 	1	n	0	0        	 	0.0	0	91.1705279999879	91.2705226999824	0.0999946999945678
69368	100	100	stimuli/movNat/fire/mn_fire09.jpg                	1	2	1	mn_fire09.jpg        	movNat   	3	fire      	15	fire09      	158	not_alive	0	moves	1	natural 	1	n	0	0        	 	0.0	0	91.320532999991	91.4205408999696	0.100007899978664
69518	100	101	stimuli/movNat/hotspring/mn_hotspring06.jpg      	1	2	1	mn_hotspring06.jpg   	movNat   	3	hotspring 	21	hotspring06 	215	not_alive	0	moves	1	natural 	1	n	0	0        	 	0.0	0	91.4705372999888	91.5705492999987	0.100012000009883
69668	100	102	stimuli/plant/cactus/plant_cactus08.jpg          	1	2	1	plant_cactus08.jpg   	plant    	6	cactus    	4	cactus08    	47	alive    	1	still	0	natural 	1	n	0	0        	 	0.0	0	91.6205427999958	91.7205335000181	0.0999907000223175
69818	100	103	stimuli/movNat/waves/mn_waves07.jpg              	1	2	1	mn_waves07.jpg       	movNat   	3	waves     	38	waves07     	386	not_alive	0	moves	1	natural 	1	n	0	0        	 	0.0	0	91.7705478999997	91.8705383999622	0.0999904999625869
69968	100	104	stimuli/movNat/river/mn_river03.jpg              	1	2	1	mn_river03.jpg       	movNat   	3	river     	29	river03     	292	not_alive	0	moves	1	natural 	1	n	0	0        	 	0.0	0	91.9205664999899	92.0205576000153	0.0999911000253633
70118	100	105	stimuli/plant2/moss/plant_moss07.jpg             	1	2	1	plant_moss07.jpg     	plant2   	7	moss      	25	moss07      	256	alive    	1	still	0	natural 	1	n	0	0        	 	0.0	0	92.0705539999762	92.1705539000104	0.0999999000341632
70268	100	106	stimuli/movNat/fire/mn_fire08.jpg                	1	2	1	mn_fire08.jpg        	movNat   	3	fire      	15	fire08      	157	not_alive	0	moves	1	natural 	1	n	0	0        	 	0.0	0	92.2205577999703	92.3205656000064	0.10000780003611
70418	100	107	stimuli/plant2/clover/plant_clover10.jpg         	1	2	1	plant_clover10.jpg   	plant2   	7	clover    	9	clover10    	99	alive    	1	still	0	natural 	1	n	0	0        	 	0.0	0	92.3705609000172	92.4705547000049	0.0999937999877147
70568	100	108	stimuli/nonmovNat/cliff/nmn_cliff06.jpg          	1	2	1	nmn_cliff06.jpg      	nonmovNat	5	cliff     	7	cliff06     	75	not_alive	0	still	0	natural 	1	n	0	0        	 	0.0	0	92.5205656999606	92.620557199989	0.0999915000284091
70718	100	109	stimuli/animals2/lemur/animal_lemur04.jpg        	1	2	1	animal_lemur04.jpg   	animals2 	1	lemur     	23	lemur04     	233	alive    	1	moves	1	natural 	1	n	0	0        	 	0.0	0	92.670614600007	92.7705637000036	0.0999490999965928
70868	100	110	stimuli/plant/vine/plant_vine08.jpg              	1	2	1	plant_vine08.jpg     	plant    	6	vine      	36	vine08      	367	alive    	1	still	0	natural 	1	n	0	0        	 	0.0	0	92.8205729000038	92.9205662999884	0.0999933999846689
71018	100	111	stimuli/plant/flower/plant_flower02.jpg          	1	2	1	plant_flower02.jpg   	plant    	6	flower    	16	flower02    	161	alive    	1	still	0	natural 	1	n	0	0        	 	0.0	0	92.9705764999962	93.0705700999824	0.0999935999861918
71168	100	112	stimuli/movArt/car/ma_car08.jpg                  	1	2	1	ma_car08.jpg         	movArt   	2	car       	5	car08       	57	not_alive	0	moves	1	artefact	0	n	0	0        	 	0.0	0	93.1205809999956	93.2205745999818	0.0999935999861918
71318	100	113	stimuli/nonmovNat/sand/nmn_sand06.jpg            	1	2	1	nmn_sand06.jpg       	nonmovNat	5	sand      	31	sand06      	315	not_alive	0	still	0	natural 	1	n	0	0        	 	0.0	0	93.2705992999836	93.3705792999826	0.09997999999905
71468	100	114	stimuli/plant/tree/plant_tree03.jpg              	1	2	1	plant_tree03.jpg     	plant    	6	tree      	35	tree03      	352	alive    	1	still	0	natural 	1	n	0	0        	 	0.0	0	93.4206126999925	93.5205835999804	0.0999708999879658
71618	100	115	stimuli/plant2/fern/plant_fern03.jpg             	1	2	1	plant_fern03.jpg     	plant2   	7	fern      	14	fern03      	142	alive    	1	still	0	natural 	1	n	0	0        	 	0.0	0	93.5705926999799	93.6705859999638	0.0999932999839075
71768	100	116	stimuli/nonmovNat/sand/nmn_sand07.jpg            	1	2	1	nmn_sand07.jpg       	nonmovNat	5	sand      	31	sand07      	316	not_alive	0	still	0	natural 	1	n	0	0        	 	0.0	0	93.7205967999762	93.8205912999692	0.0999944999930449
71918	100	117	stimuli/nonmovArt/mug/nma_mug06.jpg              	1	2	1	nma_mug06.jpg        	nonmovArt	4	mug       	26	mug06       	265	not_alive	0	still	0	artefact	0	n	0	0        	 	0.0	0	93.8706024999847	93.9705921999993	0.099989700014703
72068	100	118	stimuli/nonmovArt/lock/nma_lock03.jpg            	1	2	1	nma_lock03.jpg       	nonmovArt	4	lock      	24	lock03      	242	not_alive	0	still	0	artefact	0	n	0	0        	 	0.0	0	94.0206086999969	94.1206040999969	0.0999953999998979
72218	100	119	stimuli/movArt/boat/ma_boat03.jpg                	1	2	1	ma_boat03.jpg        	movArt   	2	boat      	2	boat03      	22	not_alive	0	moves	1	artefact	0	n	0	0        	 	0.0	0	94.1706206999952	94.2706011999981	0.0999805000028573
72368	100	120	stimuli/nonmovNat/cliff/nmn_cliff02.jpg          	1	2	1	nmn_cliff02.jpg      	nonmovNat	5	cliff     	7	cliff02     	71	not_alive	0	still	0	natural 	1	n	0	0        	 	0.0	0	94.3206138999667	94.4206053999951	0.0999915000284091
72518	100	121	stimuli/nonmovNat/crystal/nmn_crystal09.jpg      	1	2	1	nmn_crystal09.jpg    	nonmovNat	5	crystal   	10	crystal09   	108	not_alive	0	still	0	natural 	1	n	0	0        	 	0.0	0	94.4706335999654	94.570608399983	0.0999748000176624
72668	100	122	stimuli/plant/vine/plant_vine09.jpg              	1	2	1	plant_vine09.jpg     	plant    	6	vine      	36	vine09      	368	alive    	1	still	0	natural 	1	n	0	0        	 	0.0	0	94.6206198	94.7206124999793	0.0999926999793388
72818	100	123	stimuli/animals/dog/animal_dog01.jpg             	1	2	1	animal_dog01.jpg     	animals  	0	dog       	11	dog01       	110	alive    	1	moves	1	natural 	1	n	0	0        	 	0.0	0	94.7706278999685	94.8706173999817	0.0999895000131801
72968	100	124	stimuli/nonmovArt/lock/nma_lock04.jpg            	1	2	1	nma_lock04.jpg       	nonmovArt	4	lock      	24	lock04      	243	not_alive	0	still	0	artefact	0	n	0	0        	 	0.0	0	94.9206278999918	95.0206202999689	0.0999923999770544
73118	100	125	stimuli/movNat/river/mn_river10.jpg              	1	2	1	mn_river10.jpg       	movNat   	3	river     	29	river10     	299	not_alive	0	moves	1	natural 	1	n	0	0        	 	0.0	0	95.0706476999912	95.1706262999796	0.0999785999883898
73268	100	126	stimuli/movNat/fire/mn_fire05.jpg                	1	2	1	mn_fire05.jpg        	movNat   	3	fire      	15	fire05      	154	not_alive	0	moves	1	natural 	1	n	0	0        	 	0.0	0	95.2206362999859	95.3206283999607	0.0999920999747701
73418	100	127	stimuli/plant/vine/plant_vine01.jpg              	1	2	1	plant_vine01.jpg     	plant    	6	vine      	36	vine01      	360	alive    	1	still	0	natural 	1	n	0	0        	 	0.0	0	95.3706379999639	95.4706320000114	0.0999940000474453
73568	100	128	stimuli/animals/cat/animal_cat05.jpg             	1	2	1	animal_cat05.jpg     	animals  	0	cat       	6	cat05       	64	alive    	1	moves	1	natural 	1	n	0	0        	 	0.0	0	95.5206448999816	95.6206420999952	0.099997200013604
73718	100	129	stimuli/animals2/pigeon/animal_pigeon02.jpg      	1	2	1	animal_pigeon02.jpg  	animals2 	1	pigeon    	28	pigeon02    	281	alive    	1	moves	1	natural 	1	n	0	0        	 	0.0	0	95.6706486999756	95.7706420000177	0.0999933000421152
73868	100	130	stimuli/nonmovNat/shell/nmn_shell06.jpg          	1	2	1	nmn_shell06.jpg      	nonmovNat	5	shell     	32	shell06     	325	not_alive	0	still	0	natural 	1	n	0	0        	 	0.0	0	95.8206522999681	95.9206469999626	0.0999946999945678
74018	100	131	stimuli/animals2/lemur/animal_lemur01.jpg        	1	2	1	animal_lemur01.jpg   	animals2 	1	lemur     	23	lemur01     	230	alive    	1	moves	1	natural 	1	n	0	0        	 	0.0	0	95.9706538000028	96.0706492000026	0.0999953999998979
74168	100	132	stimuli/plant/tree/plant_tree09.jpg              	1	2	1	plant_tree09.jpg     	plant    	6	tree      	35	tree09      	358	alive    	1	still	0	natural 	1	n	0	0        	 	0.0	0	96.1206598000135	96.2206525999936	0.0999927999801002
74318	100	133	stimuli/plant2/clover/plant_clover06.jpg         	1	2	1	plant_clover06.jpg   	plant2   	7	clover    	9	clover06    	95	alive    	1	still	0	natural 	1	n	0	0        	 	0.0	0	96.2706644000136	96.3706971000065	0.10003269999288
74468	100	134	stimuli/animals2/pigeon/animal_pigeon06.jpg      	1	2	1	animal_pigeon06.jpg  	animals2 	1	pigeon    	28	pigeon06    	285	alive    	1	moves	1	natural 	1	n	0	0        	 	0.0	0	96.4206675000023	96.5206603999832	0.0999928999808617
74618	100	135	stimuli/movArt/bus/ma_bus07.jpg                  	1	2	1	ma_bus07.jpg         	movArt   	2	bus       	3	bus07       	36	not_alive	0	moves	1	artefact	0	n	0	0        	 	0.0	0	96.5706711999956	96.6706660999916	0.0999948999960907
74768	100	136	stimuli/nonmovArt/bench/nma_bench05.jpg          	1	2	1	nma_bench05.jpg      	nonmovArt	4	bench     	1	bench05     	14	not_alive	0	still	0	artefact	0	n	0	0        	 	0.0	0	96.720673999982	96.8206702999887	0.099996300006751
74918	100	137	stimuli/animals/horse/animal_horse03.jpg         	1	2	1	animal_horse03.jpg   	animals  	0	horse     	20	horse03     	202	alive    	1	moves	1	natural 	1	n	0	0        	 	0.0	0	96.8706801999942	96.9706741999835	0.0999939999892376
75068	100	138	stimuli/plant/cactus/plant_cactus10.jpg          	1	2	1	plant_cactus10.jpg   	plant    	6	cactus    	4	cactus10    	49	alive    	1	still	0	natural 	1	n	0	0        	 	0.0	0	97.020683699986	97.1207072999678	0.100023599981796
75218	100	139	stimuli/nonmovNat/cliff/nmn_cliff07.jpg          	1	2	1	nmn_cliff07.jpg      	nonmovNat	5	cliff     	7	cliff07     	76	not_alive	0	still	0	natural 	1	n	0	0        	 	0.0	0	97.17068749998	97.2706806999631	0.099993199983146
75369	100	140	stimuli/animals/dolphin/animal_dolphin06.jpg     	1	2	1	animal_dolphin06.jpg 	animals  	0	dolphin   	12	dolphin06   	125	alive    	1	moves	1	natural 	1	n	0	0        	 	0.0	0	97.3206919999793	97.4206844000146	0.0999924000352621
75519	100	141	stimuli/animals2/lemur/animal_lemur02.jpg        	1	2	1	animal_lemur02.jpg   	animals2 	1	lemur     	23	lemur02     	231	alive    	1	moves	1	natural 	1	n	1	0        	 	0.0	0	97.4706958999741	97.5706894000177	0.099993500043638
75669	100	142	stimuli/animals/dog/animal_dog04.jpg             	1	2	1	animal_dog04.jpg     	animals  	0	dog       	11	dog04       	113	alive    	1	moves	1	natural 	1	n	0	0        	 	0.0	0	97.620700999978	97.7207084000111	0.100007400033064
75819	100	143	stimuli/movArt/helicopter/ma_helicopter05.jpg    	1	2	1	ma_helicopter05.jpg  	movArt   	2	helicopter	19	helicopter05	194	not_alive	0	moves	1	artefact	0	n	0	0        	 	0.0	0	97.7707074999926	97.8707090999815	0.1000015999889
75969	100	144	stimuli/plant/tree/plant_tree03.jpg              	1	2	1	plant_tree03.jpg     	plant    	6	tree      	35	tree03      	352	alive    	1	still	0	natural 	1	n	0	1        	a	0.541991200007033	1	97.9207068000105	98.0207005999982	0.0999937999877147
76119	100	145	stimuli/nonmovArt/mug/nma_mug04.jpg              	1	2	1	nma_mug04.jpg        	nonmovArt	4	mug       	26	mug04       	263	not_alive	0	still	0	artefact	0	n	0	0        	 	0.0	0	98.0707121000159	98.1707046999945	0.0999925999785774
76269	100	146	stimuli/movNat/waterfall/mn_waterfall05.jpg      	1	2	1	mn_waterfall05.jpg   	movNat   	3	waterfall 	37	waterfall05 	374	not_alive	0	moves	1	natural 	1	n	0	0        	 	0.0	0	98.2207581999828	98.3207066999748	0.0999484999920242
76419	100	147	stimuli/plant2/fern/plant_fern08.jpg             	1	2	1	plant_fern08.jpg     	plant2   	7	fern      	14	fern08      	147	alive    	1	still	0	natural 	1	n	0	0        	 	0.0	0	98.3707170999842	98.4707119999803	0.0999948999960907
76569	100	148	stimuli/nonmovNat/sand/nmn_sand07.jpg            	1	2	1	nmn_sand07.jpg       	nonmovNat	5	sand      	31	sand07      	316	not_alive	0	still	0	natural 	1	n	0	0        	 	0.0	0	98.5207227999926	98.6207168999826	0.0999940999899991
76719	100	149	stimuli/plant2/palmtree/plant_palmtree10.jpg     	1	2	1	plant_palmtree10.jpg 	plant2   	7	palmtree  	27	palmtree10  	279	alive    	1	still	0	natural 	1	n	0	0        	 	0.0	0	98.6707262999844	98.770719699969	0.0999933999846689
76869	100	150	stimuli/plant2/palmtree/plant_palmtree06.jpg     	1	2	1	plant_palmtree06.jpg 	plant2   	7	palmtree  	27	palmtree06  	275	alive    	1	still	0	natural 	1	n	0	0        	 	0.0	0	98.820731099986	98.9207248999737	0.0999937999877147
77019	100	151	stimuli/movNat/fire/mn_fire03.jpg                	1	2	1	mn_fire03.jpg        	movNat   	3	fire      	15	fire03      	152	not_alive	0	moves	1	natural 	1	n	0	0        	 	0.0	0	98.9707610000041	99.0707319999929	0.0999709999887273
77169	100	152	stimuli/plant/grass/plant_grass05.jpg            	1	2	1	plant_grass05.jpg    	plant    	6	grass     	17	grass05     	174	alive    	1	still	0	natural 	1	n	0	0        	 	0.0	0	99.120740399987	99.220744899998	0.100004500010982
77319	100	153	stimuli/plant2/palmtree/plant_palmtree01.jpg     	1	2	1	plant_palmtree01.jpg 	plant2   	7	palmtree  	27	palmtree01  	270	alive    	1	still	0	natural 	1	n	0	0        	 	0.0	0	99.2707414000179	99.3707369999611	0.0999955999432132
77469	100	154	stimuli/animals/horse/animal_horse03.jpg         	1	2	1	animal_horse03.jpg   	animals  	0	horse     	20	horse03     	202	alive    	1	moves	1	natural 	1	n	0	0        	 	0.0	0	99.4207472999696	99.5207382999943	0.0999910000246018
77619	100	155	stimuli/animals2/pigeon/animal_pigeon07.jpg      	1	2	1	animal_pigeon07.jpg  	animals2 	1	pigeon    	28	pigeon07    	286	alive    	1	moves	1	natural 	1	n	0	0        	 	0.0	0	99.5707612999831	99.670753799961	0.0999924999778159
77769	100	156	stimuli/movNat/waterfall/mn_waterfall04.jpg      	1	2	1	mn_waterfall04.jpg   	movNat   	3	waterfall 	37	waterfall04 	373	not_alive	0	moves	1	natural 	1	n	0	0        	 	0.0	0	99.7207862999639	99.8207540999865	0.0999678000225686
77919	100	157	stimuli/plant/cactus/plant_cactus09.jpg          	1	2	1	plant_cactus09.jpg   	plant    	6	cactus    	4	cactus09    	48	alive    	1	still	0	natural 	1	n	0	0        	 	0.0	0	99.8707646999974	99.9707626000163	0.0999979000189342
78069	100	158	stimuli/nonmovArt/bench/nma_bench10.jpg          	1	2	1	nma_bench10.jpg      	nonmovArt	4	bench     	1	bench10     	19	not_alive	0	still	0	artefact	0	n	0	0        	 	0.0	0	100.020767899987	100.120762799983	0.0999948999960907
78219	100	159	stimuli/movArt/bus/ma_bus07.jpg                  	1	2	1	ma_bus07.jpg         	movArt   	2	bus       	3	bus07       	36	not_alive	0	moves	1	artefact	0	n	0	0        	 	0.0	0	100.170772399986	100.270766399975	0.0999939999892376
81419	100	160	stimuli/plant/flower/plant_flower05.jpg          	1	3	1	plant_flower05.jpg   	plant    	6	flower    	16	flower05    	164	alive    	1	still	0	natural 	1	n	0	0        	 	0.0	0	103.370871099993	103.470865399984	0.099994299991522
81569	100	161	stimuli/animals2/whale/animal_whale04.jpg        	1	3	1	animal_whale04.jpg   	animals2 	1	whale     	39	whale04     	393	alive    	1	moves	1	natural 	1	n	0	0        	 	0.0	0	103.520875599992	103.620859599963	0.0999839999713004
81719	100	162	stimuli/movNat/hotspring/mn_hotspring05.jpg      	1	3	1	mn_hotspring05.jpg   	movNat   	3	hotspring 	21	hotspring05 	214	not_alive	0	moves	1	natural 	1	n	0	0        	 	0.0	0	103.67087859998	103.770871499961	0.0999928999808617
81869	100	163	stimuli/movArt/train/ma_train02.jpg              	1	3	1	ma_train02.jpg       	movArt   	2	train     	34	train02     	341	not_alive	0	moves	1	artefact	0	n	0	0        	 	0.0	0	103.820884399989	103.920870399976	0.0999859999865294
82019	100	164	stimuli/movArt/train/ma_train09.jpg              	1	3	1	ma_train09.jpg       	movArt   	2	train     	34	train09     	348	not_alive	0	moves	1	artefact	0	n	0	0        	 	0.0	0	103.97089669999	104.070873299963	0.0999765999731608
82169	100	165	stimuli/plant/vine/plant_vine09.jpg              	1	3	1	plant_vine09.jpg     	plant    	6	vine      	36	vine09      	368	alive    	1	still	0	natural 	1	n	0	0        	 	0.0	0	104.120897699962	104.220892000012	0.0999943000497296
82319	100	166	stimuli/animals2/whale/animal_whale04.jpg        	1	3	1	animal_whale04.jpg   	animals2 	1	whale     	39	whale04     	393	alive    	1	moves	1	natural 	1	n	0	0        	 	0.0	0	104.270885400008	104.370889999962	0.100004599953536
82469	100	167	stimuli/movArt/helicopter/ma_helicopter05.jpg    	1	3	1	ma_helicopter05.jpg  	movArt   	2	helicopter	19	helicopter05	194	not_alive	0	moves	1	artefact	0	n	0	0        	 	0.0	0	104.420905200008	104.520896399976	0.099991199967917
82619	100	168	stimuli/movNat/waves/mn_waves09.jpg              	1	3	1	mn_waves09.jpg       	movNat   	3	waves     	38	waves09     	388	not_alive	0	moves	1	natural 	1	n	0	0        	 	0.0	0	104.570910400013	104.670903799997	0.0999933999846689
82769	100	169	stimuli/nonmovNat/crystal/nmn_crystal03.jpg      	1	3	1	nmn_crystal03.jpg    	nonmovNat	5	crystal   	10	crystal03   	102	not_alive	0	still	0	natural 	1	n	0	0        	 	0.0	0	104.720905099995	104.820931599999	0.100026500003878
82919	100	170	stimuli/movNat/river/mn_river04.jpg              	1	3	1	mn_river04.jpg       	movNat   	3	river     	29	river04     	293	not_alive	0	moves	1	natural 	1	n	0	0        	 	0.0	0	104.870917499997	104.97089539998	0.0999778999830596
83069	100	171	stimuli/nonmovNat/cliff/nmn_cliff04.jpg          	1	3	1	nmn_cliff04.jpg      	nonmovNat	5	cliff     	7	cliff04     	73	not_alive	0	still	0	natural 	1	n	0	0        	 	0.0	0	105.020905699988	105.120912300015	0.100006600026973
83219	100	172	stimuli/animals/eagle/animal_eagle07.jpg         	1	3	1	animal_eagle07.jpg   	animals  	0	eagle     	13	eagle07     	136	alive    	1	moves	1	natural 	1	n	0	0        	 	0.0	0	105.170927500003	105.270924300014	0.0999968000105582
83369	100	173	stimuli/nonmovNat/sand/nmn_sand06.jpg            	1	3	1	nmn_sand06.jpg       	nonmovNat	5	sand      	31	sand06      	315	not_alive	0	still	0	natural 	1	n	0	0        	 	0.0	0	105.320930299989	105.420923899976	0.0999935999861918
83519	100	174	stimuli/movNat/hotspring/mn_hotspring02.jpg      	1	3	1	mn_hotspring02.jpg   	movNat   	3	hotspring 	21	hotspring02 	211	not_alive	0	moves	1	natural 	1	n	0	0        	 	0.0	0	105.470915999962	105.570912099967	0.0999961000052281
83669	100	175	stimuli/movArt/helicopter/ma_helicopter06.jpg    	1	3	1	ma_helicopter06.jpg  	movArt   	2	helicopter	19	helicopter06	195	not_alive	0	moves	1	artefact	0	n	0	0        	 	0.0	0	105.620925700001	105.720930900017	0.100005200016312
83819	100	176	stimuli/animals2/bee/animal_bee05.jpg            	1	3	1	animal_bee05.jpg     	animals2 	1	bee       	0	bee05       	4	alive    	1	moves	1	natural 	1	n	0	0        	 	0.0	0	105.770925599965	105.870933300001	0.100007700035349
83969	100	177	stimuli/movArt/car/ma_car02.jpg                  	1	3	1	ma_car02.jpg         	movArt   	2	car       	5	car02       	51	not_alive	0	moves	1	artefact	0	n	0	0        	 	0.0	0	105.920955199981	106.020923500007	0.0999683000263758
84119	100	178	stimuli/plant/cactus/plant_cactus06.jpg          	1	3	1	plant_cactus06.jpg   	plant    	6	cactus    	4	cactus06    	45	alive    	1	still	0	natural 	1	n	0	0        	 	0.0	0	106.070948500012	106.170936300012	0.0999878000002354
84269	100	179	stimuli/movNat/waves/mn_waves09.jpg              	1	3	1	mn_waves09.jpg       	movNat   	3	waves     	38	waves09     	388	not_alive	0	moves	1	natural 	1	n	0	0        	 	0.0	0	106.220942399988	106.320946599997	0.100004200008698
84419	100	180	stimuli/animals2/lemur/animal_lemur02.jpg        	1	3	1	animal_lemur02.jpg   	animals2 	1	lemur     	23	lemur02     	231	alive    	1	moves	1	natural 	1	n	0	0        	 	0.0	0	106.370975799975	106.470935899997	0.0999601000221446
84569	100	181	stimuli/animals/dog/animal_dog08.jpg             	1	3	1	animal_dog08.jpg     	animals  	0	dog       	11	dog08       	117	alive    	1	moves	1	natural 	1	n	0	0        	 	0.0	0	106.5209454	106.620939799992	0.0999943999922834
84719	100	182	stimuli/plant/grass/plant_grass08.jpg            	1	3	1	plant_grass08.jpg    	plant    	6	grass     	17	grass08     	177	alive    	1	still	0	natural 	1	n	0	0        	 	0.0	0	106.6709653	106.770945600001	0.0999803000013344
84869	100	183	stimuli/movArt/boat/ma_boat06.jpg                	1	3	1	ma_boat06.jpg        	movArt   	2	boat      	2	boat06      	25	not_alive	0	moves	1	artefact	0	n	0	0        	 	0.0	0	106.820917900011	106.920963299985	0.100045399973169
85019	100	184	stimuli/nonmovArt/lock/nma_lock08.jpg            	1	3	1	nma_lock08.jpg       	nonmovArt	4	lock      	24	lock08      	247	not_alive	0	still	0	artefact	0	n	0	0        	 	0.0	0	106.970958399994	107.070965599967	0.100007199973334
85169	100	185	stimuli/plant/flower/plant_flower07.jpg          	1	3	1	plant_flower07.jpg   	plant    	6	flower    	16	flower07    	166	alive    	1	still	0	natural 	1	n	1	0        	 	0.0	0	107.121010600007	107.220970999973	0.0999603999662213
85319	100	186	stimuli/plant/grass/plant_grass04.jpg            	1	3	1	plant_grass04.jpg    	plant    	6	grass     	17	grass04     	173	alive    	1	still	0	natural 	1	n	0	0        	 	0.0	0	107.270979999972	107.370974299964	0.099994299991522
85469	100	187	stimuli/nonmovNat/rock/nmn_rock10.jpg            	1	3	1	nmn_rock10.jpg       	nonmovNat	5	rock      	30	rock10      	309	not_alive	0	still	0	natural 	1	n	0	1        	f	0.40084969997406	1	107.420970199979	107.520977200009	0.100007000030018
85619	100	188	stimuli/nonmovArt/clothespeg/nma_clothespeg08.jpg	1	3	1	nma_clothespeg08.jpg 	nonmovArt	4	clothespeg	8	clothespeg08	87	not_alive	0	still	0	artefact	0	n	1	0        	 	0.0	0	107.570983799989	107.670961699972	0.0999778999830596
85769	100	189	stimuli/plant2/clover/plant_clover06.jpg         	1	3	1	plant_clover06.jpg   	plant2   	7	clover    	9	clover06    	95	alive    	1	still	0	natural 	1	n	0	0        	 	0.0	0	107.720976300014	107.820964100014	0.0999878000002354
85919	100	190	stimuli/nonmovArt/headphones/nma_headphones02.jpg	1	3	1	nma_headphones02.jpg 	nonmovArt	4	headphones	18	headphones02	181	not_alive	0	still	0	artefact	0	n	0	0        	 	0.0	0	107.870971600001	107.970981399994	0.100009799993131
86069	100	191	stimuli/animals/eagle/animal_eagle10.jpg         	1	3	1	animal_eagle10.jpg   	animals  	0	eagle     	13	eagle10     	139	alive    	1	moves	1	natural 	1	n	0	0        	 	0.0	0	108.020981799986	108.120967599971	0.0999857999850064
86219	100	192	stimuli/nonmovNat/shell/nmn_shell06.jpg          	1	3	1	nmn_shell06.jpg      	nonmovNat	5	shell     	32	shell06     	325	not_alive	0	still	0	natural 	1	n	0	1        	f	0.691976199974306	1	108.170978799986	108.270970800018	0.0999920000322163
86369	100	193	stimuli/movArt/bus/ma_bus10.jpg                  	1	3	1	ma_bus10.jpg         	movArt   	2	bus       	3	bus10       	39	not_alive	0	moves	1	artefact	0	n	0	0        	 	0.0	0	108.320982199977	108.420973500004	0.0999913000268862
86519	100	194	stimuli/nonmovArt/lock/nma_lock02.jpg            	1	3	1	nma_lock02.jpg       	nonmovArt	4	lock      	24	lock02      	241	not_alive	0	still	0	artefact	0	n	0	0        	 	0.0	0	108.470984300016	108.570976799994	0.0999924999778159
86669	100	195	stimuli/animals2/tiger/animal_tiger08.jpg        	1	3	1	animal_tiger08.jpg   	animals2 	1	tiger     	33	tiger08     	337	alive    	1	moves	1	natural 	1	n	0	0        	 	0.0	0	108.620987000002	108.720981799997	0.0999947999953292
86819	100	196	stimuli/plant2/clover/plant_clover08.jpg         	1	3	1	plant_clover08.jpg   	plant2   	7	clover    	9	clover08    	97	alive    	1	still	0	natural 	1	n	1	0        	 	0.0	0	108.770993100014	108.871021999978	0.100028899963945
86969	100	197	stimuli/plant2/lemontree/plant_lemontree05.jpg   	1	3	1	plant_lemontree05.jpg	plant2   	7	lemontree 	22	lemontree05 	224	alive    	1	still	0	natural 	1	n	0	0        	 	0.0	0	108.92102389998	109.021001400019	0.0999775000382215
87119	100	198	stimuli/plant2/fern/plant_fern02.jpg             	1	3	1	plant_fern02.jpg     	plant2   	7	fern      	14	fern02      	141	alive    	1	still	0	natural 	1	n	0	1        	f	0.400212699954864	1	109.071013299981	109.171022999974	0.10000969999237
87269	100	199	stimuli/movNat/river/mn_river01.jpg              	1	3	1	mn_river01.jpg       	movNat   	3	river     	29	river01     	290	not_alive	0	moves	1	natural 	1	n	0	0        	 	0.0	0	109.221031899971	109.321018499963	0.099986599991098
87419	100	200	stimuli/nonmovArt/mug/nma_mug10.jpg              	1	3	1	nma_mug10.jpg        	nonmovArt	4	mug       	26	mug10       	269	not_alive	0	still	0	artefact	0	n	0	0        	 	0.0	0	109.371027499961	109.471019499993	0.0999920000322163
87569	100	201	stimuli/nonmovArt/clothespeg/nma_clothespeg02.jpg	1	3	1	nma_clothespeg02.jpg 	nonmovArt	4	clothespeg	8	clothespeg02	81	not_alive	0	still	0	artefact	0	n	0	0        	 	0.0	0	109.521030200005	109.621025	0.0999947999953292
87719	100	202	stimuli/plant2/moss/plant_moss08.jpg             	1	3	1	plant_moss08.jpg     	plant2   	7	moss      	25	moss08      	257	alive    	1	still	0	natural 	1	n	0	0        	 	0.0	0	109.67103550001	109.771027199982	0.0999916999717243
87869	100	203	stimuli/animals2/bee/animal_bee02.jpg            	1	3	1	animal_bee02.jpg     	animals2 	1	bee       	0	bee02       	1	alive    	1	moves	1	natural 	1	n	0	0        	 	0.0	0	109.821040100011	109.921045199968	0.100005099957343
88019	100	204	stimuli/nonmovNat/rock/nmn_rock02.jpg            	1	3	1	nmn_rock02.jpg       	nonmovNat	5	rock      	30	rock02      	301	not_alive	0	still	0	natural 	1	n	0	0        	 	0.0	0	109.971055199974	110.071006199985	0.0999510000110604
88169	100	205	stimuli/nonmovArt/headphones/nma_headphones09.jpg	1	3	1	nma_headphones09.jpg 	nonmovArt	4	headphones	18	headphones09	188	not_alive	0	still	0	artefact	0	n	0	0        	 	0.0	0	110.121063500002	110.221051100001	0.0999875999987125
88319	100	206	stimuli/plant2/lemontree/plant_lemontree03.jpg   	1	3	1	plant_lemontree03.jpg	plant2   	7	lemontree 	22	lemontree03 	222	alive    	1	still	0	natural 	1	n	0	0        	 	0.0	0	110.271051899996	110.371045799984	0.0999938999884762
88469	100	207	stimuli/nonmovNat/shell/nmn_shell10.jpg          	1	3	1	nmn_shell10.jpg      	nonmovNat	5	shell     	32	shell10     	329	not_alive	0	still	0	natural 	1	n	0	0        	 	0.0	0	110.421066300012	110.521061000007	0.0999946999945678
88619	100	208	stimuli/nonmovArt/bench/nma_bench05.jpg          	1	3	1	nma_bench05.jpg      	nonmovArt	4	bench     	1	bench05     	14	not_alive	0	still	0	artefact	0	n	1	0        	 	0.0	0	110.571065699973	110.671055599989	0.0999899000162259
88769	100	209	stimuli/plant/tree/plant_tree06.jpg              	1	3	1	plant_tree06.jpg     	plant    	6	tree      	35	tree06      	355	alive    	1	still	0	natural 	1	n	0	0        	 	0.0	0	110.721061999968	110.82105899998	0.0999970000120811
88919	100	210	stimuli/animals/dolphin/animal_dolphin04.jpg     	1	3	1	animal_dolphin04.jpg 	animals  	0	dolphin   	12	dolphin04   	123	alive    	1	moves	1	natural 	1	n	0	1        	f	0.392027500027325	1	110.871085599996	110.971054499969	0.0999688999727368
89069	100	211	stimuli/movArt/car/ma_car05.jpg                  	1	3	1	ma_car05.jpg         	movArt   	2	car       	5	car05       	54	not_alive	0	moves	1	artefact	0	n	0	0        	 	0.0	0	111.021073799988	111.121076399984	0.100002599996515
89219	100	212	stimuli/plant2/moss/plant_moss01.jpg             	1	3	1	plant_moss01.jpg     	plant2   	7	moss      	25	moss01      	250	alive    	1	still	0	natural 	1	n	0	0        	 	0.0	0	111.171077699983	111.271061200008	0.0999835000257008
89369	100	213	stimuli/nonmovNat/rock/nmn_rock03.jpg            	1	3	1	nmn_rock03.jpg       	nonmovNat	5	rock      	30	rock03      	302	not_alive	0	still	0	natural 	1	n	0	0        	 	0.0	0	111.321080999973	111.421064900002	0.0999839000287466
89519	100	214	stimuli/animals2/tiger/animal_tiger09.jpg        	1	3	1	animal_tiger09.jpg   	animals2 	1	tiger     	33	tiger09     	338	alive    	1	moves	1	natural 	1	n	0	0        	 	0.0	0	111.471090800012	111.571091399994	0.100000599981286
89669	100	215	stimuli/animals2/bee/animal_bee09.jpg            	1	3	1	animal_bee09.jpg     	animals2 	1	bee       	0	bee09       	8	alive    	1	moves	1	natural 	1	n	0	0        	 	0.0	0	111.621096499963	111.721088099992	0.0999916000291705
89819	100	216	stimuli/plant/flower/plant_flower05.jpg          	1	3	1	plant_flower05.jpg   	plant    	6	flower    	16	flower05    	164	alive    	1	still	0	natural 	1	n	0	0        	 	0.0	0	111.77109960001	111.871094200003	0.0999945999938063
89969	100	217	stimuli/animals/cat/animal_cat05.jpg             	1	3	1	animal_cat05.jpg     	animals  	0	cat       	6	cat05       	64	alive    	1	moves	1	natural 	1	n	0	0        	 	0.0	0	111.921063599992	112.021080999984	0.100017399992794
90119	100	218	stimuli/nonmovNat/crystal/nmn_crystal03.jpg      	1	3	1	nmn_crystal03.jpg    	nonmovNat	5	crystal   	10	crystal03   	102	not_alive	0	still	0	natural 	1	n	0	0        	 	0.0	0	112.071097799984	112.171095700003	0.0999979000189342
90269	100	219	stimuli/movNat/waterfall/mn_waterfall08.jpg      	1	3	1	mn_waterfall08.jpg   	movNat   	3	waterfall 	37	waterfall08 	377	not_alive	0	moves	1	natural 	1	n	0	0        	 	0.0	0	112.221095399989	112.321118199965	0.100022799975704
90419	100	220	stimuli/movNat/waves/mn_waves10.jpg              	1	3	1	mn_waves10.jpg       	movNat   	3	waves     	38	waves10     	389	not_alive	0	moves	1	natural 	1	n	0	0        	 	0.0	0	112.371100399992	112.471109699982	0.100009299989324
90569	100	221	stimuli/movNat/fire/mn_fire03.jpg                	1	3	1	mn_fire03.jpg        	movNat   	3	fire      	15	fire03      	152	not_alive	0	moves	1	natural 	1	n	0	0        	 	0.0	0	112.521106400003	112.621096599963	0.0999901999603026
90719	100	222	stimuli/animals2/whale/animal_whale05.jpg        	1	3	1	animal_whale05.jpg   	animals2 	1	whale     	39	whale05     	394	alive    	1	moves	1	natural 	1	n	0	0        	 	0.0	0	112.671142600011	112.771115900017	0.0999733000062406
90869	100	223	stimuli/animals/dolphin/animal_dolphin07.jpg     	1	3	1	animal_dolphin07.jpg 	animals  	0	dolphin   	12	dolphin07   	126	alive    	1	moves	1	natural 	1	n	0	0        	 	0.0	0	112.821110999968	112.921109099989	0.0999981000204571
91019	100	224	stimuli/nonmovNat/sand/nmn_sand01.jpg            	1	3	1	nmn_sand01.jpg       	nonmovNat	5	sand      	31	sand01      	310	not_alive	0	still	0	natural 	1	n	0	0        	 	0.0	0	112.971130699967	113.071123000002	0.0999923000345007
91169	100	225	stimuli/animals/eagle/animal_eagle06.jpg         	1	3	1	animal_eagle06.jpg   	animals  	0	eagle     	13	eagle06     	135	alive    	1	moves	1	natural 	1	n	0	0        	 	0.0	0	113.121117400005	113.22112609999	0.100008699984755
91319	100	226	stimuli/movNat/hotspring/mn_hotspring10.jpg      	1	3	1	mn_hotspring10.jpg   	movNat   	3	hotspring 	21	hotspring10 	219	not_alive	0	moves	1	natural 	1	n	0	0        	 	0.0	0	113.271128399996	113.371125800011	0.0999974000151269
91469	100	227	stimuli/movArt/train/ma_train08.jpg              	1	3	1	ma_train08.jpg       	movArt   	2	train     	34	train08     	347	not_alive	0	moves	1	artefact	0	n	0	0        	 	0.0	0	113.421140099992	113.52111859998	0.0999784999876283
91619	100	228	stimuli/plant2/fern/plant_fern10.jpg             	1	3	1	plant_fern10.jpg     	plant2   	7	fern      	14	fern10      	149	alive    	1	still	0	natural 	1	n	0	0        	 	0.0	0	113.571132500016	113.671127500013	0.0999949999968521
91769	100	229	stimuli/animals/cat/animal_cat08.jpg             	1	3	1	animal_cat08.jpg     	animals  	0	cat       	6	cat08       	67	alive    	1	moves	1	natural 	1	n	0	0        	 	0.0	0	113.721152300015	113.821142499975	0.0999901999603026
91919	100	230	stimuli/plant2/moss/plant_moss05.jpg             	1	3	1	plant_moss05.jpg     	plant2   	7	moss      	25	moss05      	254	alive    	1	still	0	natural 	1	n	0	0        	 	0.0	0	113.871154799999	113.971146299969	0.0999914999702014
92069	100	231	stimuli/movArt/car/ma_car10.jpg                  	1	3	1	ma_car10.jpg         	movArt   	2	car       	5	car10       	59	not_alive	0	moves	1	artefact	0	n	0	0        	 	0.0	0	114.021158799995	114.12113829999	0.0999794999952428
92219	100	232	stimuli/movArt/boat/ma_boat07.jpg                	1	3	1	ma_boat07.jpg        	movArt   	2	boat      	2	boat07      	26	not_alive	0	moves	1	artefact	0	n	0	0        	 	0.0	0	114.171165600012	114.271139199962	0.0999735999503173
92369	100	233	stimuli/plant2/lemontree/plant_lemontree01.jpg   	1	3	1	plant_lemontree01.jpg	plant2   	7	lemontree 	22	lemontree01 	220	alive    	1	still	0	natural 	1	n	0	0        	 	0.0	0	114.321165899979	114.421142800013	0.0999769000336528
92519	100	234	stimuli/animals2/tiger/animal_tiger08.jpg        	1	3	1	animal_tiger08.jpg   	animals2 	1	tiger     	33	tiger08     	337	alive    	1	moves	1	natural 	1	n	0	0        	 	0.0	0	114.471168799966	114.571148599964	0.0999797999975272
92669	100	235	stimuli/animals/horse/animal_horse07.jpg         	1	3	1	animal_horse07.jpg   	animals  	0	horse     	20	horse07     	206	alive    	1	moves	1	natural 	1	n	0	0        	 	0.0	0	114.621153399989	114.721148099983	0.0999946999945678
92819	100	236	stimuli/movArt/boat/ma_boat04.jpg                	1	3	1	ma_boat04.jpg        	movArt   	2	boat      	2	boat04      	23	not_alive	0	moves	1	artefact	0	n	0	0        	 	0.0	0	114.771155799972	114.871168999991	0.100013200019021
92969	100	237	stimuli/nonmovArt/mug/nma_mug09.jpg              	1	3	1	nma_mug09.jpg        	nonmovArt	4	mug       	26	mug09       	268	not_alive	0	still	0	artefact	0	n	0	0        	 	0.0	0	114.921155999997	115.021146100014	0.0999901000177488
93119	100	238	stimuli/nonmovArt/clothespeg/nma_clothespeg08.jpg	1	3	1	nma_clothespeg08.jpg 	nonmovArt	4	clothespeg	8	clothespeg08	87	not_alive	0	still	0	artefact	0	n	0	0        	 	0.0	0	115.071157899976	115.171155599994	0.0999977000174113
93269	100	239	stimuli/nonmovArt/headphones/nma_headphones09.jpg	1	3	1	nma_headphones09.jpg 	nonmovArt	4	headphones	18	headphones09	188	not_alive	0	still	0	artefact	0	n	0	0        	 	0.0	0	115.221181200002	115.321156699967	0.0999754999647848
103053	100	240	stimuli/animals/cat/animal_cat03.jpg             	1	4	1	animal_cat03.jpg     	animals  	0	cat       	6	cat03       	62	alive    	1	moves	1	natural 	1	n	0	0        	 	0.0	0	125.004775599984	125.10475519998	0.0999795999960042
103203	100	241	stimuli/nonmovArt/bench/nma_bench06.jpg          	1	4	1	nma_bench06.jpg      	nonmovArt	4	bench     	1	bench06     	15	not_alive	0	still	0	artefact	0	n	0	0        	 	0.0	0	125.154769100016	125.254773099965	0.100003999948967
103353	100	242	stimuli/movNat/waterfall/mn_waterfall01.jpg      	1	4	1	mn_waterfall01.jpg   	movNat   	3	waterfall 	37	waterfall01 	370	not_alive	0	moves	1	natural 	1	n	0	0        	 	0.0	0	125.304779600003	125.404760500009	0.0999809000059031
103503	100	243	stimuli/movArt/boat/ma_boat09.jpg                	1	4	1	ma_boat09.jpg        	movArt   	2	boat      	2	boat09      	28	not_alive	0	moves	1	artefact	0	n	0	0        	 	0.0	0	125.454800800013	125.55476639996	0.099965599947609
103653	100	244	stimuli/movNat/waves/mn_waves01.jpg              	1	4	1	mn_waves01.jpg       	movNat   	3	waves     	38	waves01     	380	not_alive	0	moves	1	natural 	1	n	0	0        	 	0.0	0	125.604775400017	125.704766799987	0.09999139996944
103803	100	245	stimuli/animals2/lemur/animal_lemur09.jpg        	1	4	1	animal_lemur09.jpg   	animals2 	1	lemur     	23	lemur09     	238	alive    	1	moves	1	natural 	1	n	0	0        	 	0.0	0	125.754781499971	125.854772899998	0.0999914000276476
103953	100	246	stimuli/animals/eagle/animal_eagle05.jpg         	1	4	1	animal_eagle05.jpg   	animals  	0	eagle     	13	eagle05     	134	alive    	1	moves	1	natural 	1	n	0	0        	 	0.0	0	125.904792699963	126.004787700018	0.0999950000550598
104103	100	247	stimuli/movArt/train/ma_train01.jpg              	1	4	1	ma_train01.jpg       	movArt   	2	train     	34	train01     	340	not_alive	0	moves	1	artefact	0	n	0	0        	 	0.0	0	126.054786399996	126.154780199984	0.0999937999877147
104253	100	248	stimuli/nonmovArt/headphones/nma_headphones10.jpg	1	4	1	nma_headphones10.jpg 	nonmovArt	4	headphones	18	headphones10	189	not_alive	0	still	0	artefact	0	n	0	0        	 	0.0	0	126.204808000009	126.30478419998	0.099976199970115
104403	100	249	stimuli/animals/dog/animal_dog05.jpg             	1	4	1	animal_dog05.jpg     	animals  	0	dog       	11	dog05       	114	alive    	1	moves	1	natural 	1	n	0	0        	 	0.0	0	126.354796	126.454788099974	0.0999920999747701
104553	100	250	stimuli/animals2/lemur/animal_lemur02.jpg        	1	4	1	animal_lemur02.jpg   	animals2 	1	lemur     	23	lemur02     	231	alive    	1	moves	1	natural 	1	n	0	0        	 	0.0	0	126.504799999995	126.604803299997	0.100003300001845
104703	100	251	stimuli/plant2/fern/plant_fern09.jpg             	1	4	1	plant_fern09.jpg     	plant2   	7	fern      	14	fern09      	148	alive    	1	still	0	natural 	1	n	0	0        	 	0.0	0	126.654804299993	126.754808400001	0.100004100007936
104853	100	252	stimuli/animals/cat/animal_cat08.jpg             	1	4	1	animal_cat08.jpg     	animals  	0	cat       	6	cat08       	67	alive    	1	moves	1	natural 	1	n	0	0        	 	0.0	0	126.804807799985	126.904809699976	0.100001899991184
105003	100	253	stimuli/animals/horse/animal_horse06.jpg         	1	4	1	animal_horse06.jpg   	animals  	0	horse     	20	horse06     	205	alive    	1	moves	1	natural 	1	n	0	0        	 	0.0	0	126.954812799988	127.054805299966	0.0999924999778159
105153	100	254	stimuli/animals/eagle/animal_eagle04.jpg         	1	4	1	animal_eagle04.jpg   	animals  	0	eagle     	13	eagle04     	133	alive    	1	moves	1	natural 	1	n	0	0        	 	0.0	0	127.104822999972	127.204806900001	0.0999839000287466
105303	100	255	stimuli/movArt/bus/ma_bus03.jpg                  	1	4	1	ma_bus03.jpg         	movArt   	2	bus       	3	bus03       	32	not_alive	0	moves	1	artefact	0	n	0	0        	 	0.0	0	127.254819699971	127.354814599967	0.0999948999960907
105453	100	256	stimuli/movArt/boat/ma_boat05.jpg                	1	4	1	ma_boat05.jpg        	movArt   	2	boat      	2	boat05      	24	not_alive	0	moves	1	artefact	0	n	0	0        	 	0.0	0	127.404823399964	127.504816900007	0.099993500043638
105603	100	257	stimuli/movNat/waterfall/mn_waterfall03.jpg      	1	4	1	mn_waterfall03.jpg   	movNat   	3	waterfall 	37	waterfall03 	372	not_alive	0	moves	1	natural 	1	n	1	0        	 	0.0	0	127.554826600011	127.654819299991	0.0999926999793388
105753	100	258	stimuli/movArt/car/ma_car01.jpg                  	1	4	1	ma_car01.jpg         	movArt   	2	car       	5	car01       	50	not_alive	0	moves	1	artefact	0	n	0	0        	 	0.0	0	127.704832499963	127.804826200008	0.099993700045161
105903	100	259	stimuli/plant2/lemontree/plant_lemontree10.jpg   	1	4	1	plant_lemontree10.jpg	plant2   	7	lemontree 	22	lemontree10 	229	alive    	1	still	0	natural 	1	n	0	1        	f	0.391991299984511	1	127.854828700016	127.954822300002	0.0999935999861918
106053	100	260	stimuli/movNat/fire/mn_fire07.jpg                	1	4	1	mn_fire07.jpg        	movNat   	3	fire      	15	fire07      	156	not_alive	0	moves	1	natural 	1	n	0	0        	 	0.0	0	128.004833899962	128.104826399998	0.0999925000360236
106203	100	261	stimuli/nonmovArt/headphones/nma_headphones07.jpg	1	4	1	nma_headphones07.jpg 	nonmovArt	4	headphones	18	headphones07	186	not_alive	0	still	0	artefact	0	n	0	0        	 	0.0	0	128.154839899973	128.254847900011	0.100008000037633
106353	100	262	stimuli/movNat/hotspring/mn_hotspring10.jpg      	1	4	1	mn_hotspring10.jpg   	movNat   	3	hotspring 	21	hotspring10 	219	not_alive	0	moves	1	natural 	1	n	0	0        	 	0.0	0	128.304842100013	128.404834899993	0.0999927999801002
106503	100	263	stimuli/animals2/tiger/animal_tiger08.jpg        	1	4	1	animal_tiger08.jpg   	animals2 	1	tiger     	33	tiger08     	337	alive    	1	moves	1	natural 	1	n	1	0        	 	0.0	0	128.45484630001	128.554837299976	0.0999909999663942
106653	100	264	stimuli/plant/flower/plant_flower03.jpg          	1	4	1	plant_flower03.jpg   	plant    	6	flower    	16	flower03    	162	alive    	1	still	0	natural 	1	n	0	0        	 	0.0	0	128.604848499992	128.704841499974	0.0999929999816231
106803	100	265	stimuli/animals2/pigeon/animal_pigeon05.jpg      	1	4	1	animal_pigeon05.jpg  	animals2 	1	pigeon    	28	pigeon05    	284	alive    	1	moves	1	natural 	1	n	0	0        	 	0.0	0	128.754851199978	128.854873100005	0.100021900027059
106953	100	266	stimuli/nonmovArt/lock/nma_lock09.jpg            	1	4	1	nma_lock09.jpg       	nonmovArt	4	lock      	24	lock09      	248	not_alive	0	still	0	artefact	0	n	0	1        	f	0.550213399983477	1	128.9048664	129.004862500005	0.0999961000052281
107103	100	267	stimuli/animals/cat/animal_cat06.jpg             	1	4	1	animal_cat06.jpg     	animals  	0	cat       	6	cat06       	65	alive    	1	moves	1	natural 	1	n	0	0        	 	0.0	0	129.054866799968	129.15486239997	0.0999956000014208
107253	100	268	stimuli/plant/vine/plant_vine06.jpg              	1	4	1	plant_vine06.jpg     	plant    	6	vine      	36	vine06      	365	alive    	1	still	0	natural 	1	n	0	0        	 	0.0	0	129.204870999965	129.304862099991	0.0999911000253633
107403	100	269	stimuli/animals/dog/animal_dog03.jpg             	1	4	1	animal_dog03.jpg     	animals  	0	dog       	11	dog03       	112	alive    	1	moves	1	natural 	1	n	0	0        	 	0.0	0	129.354873300006	129.454882899998	0.100009599991608
107553	100	270	stimuli/plant2/moss/plant_moss04.jpg             	1	4	1	plant_moss04.jpg     	plant2   	7	moss      	25	moss04      	253	alive    	1	still	0	natural 	1	n	0	0        	 	0.0	0	129.504881499975	129.604871299991	0.0999898000154644
107703	100	271	stimuli/nonmovNat/crystal/nmn_crystal04.jpg      	1	4	1	nmn_crystal04.jpg    	nonmovNat	5	crystal   	10	crystal04   	103	not_alive	0	still	0	natural 	1	n	0	0        	 	0.0	0	129.654882000003	129.754876299994	0.099994299991522
107853	100	272	stimuli/nonmovNat/sand/nmn_sand04.jpg            	1	4	1	nmn_sand04.jpg       	nonmovNat	5	sand      	31	sand04      	313	not_alive	0	still	0	natural 	1	n	0	0        	 	0.0	0	129.804885199992	129.904886299977	0.100001099985093
108003	100	273	stimuli/nonmovArt/mug/nma_mug03.jpg              	1	4	1	nma_mug03.jpg        	nonmovArt	4	mug       	26	mug03       	262	not_alive	0	still	0	artefact	0	n	0	0        	 	0.0	0	129.954885799962	130.054875399976	0.0999896000139415
108153	100	274	stimuli/plant/vine/plant_vine03.jpg              	1	4	1	plant_vine03.jpg     	plant    	6	vine      	36	vine03      	362	alive    	1	still	0	natural 	1	n	0	0        	 	0.0	0	130.104887399997	130.204881399986	0.0999939999892376
108303	100	275	stimuli/movArt/helicopter/ma_helicopter06.jpg    	1	4	1	ma_helicopter06.jpg  	movArt   	2	helicopter	19	helicopter06	195	not_alive	0	moves	1	artefact	0	n	1	0        	 	0.0	0	130.254894300015	130.35488519998	0.0999908999656327
108453	100	276	stimuli/plant/cactus/plant_cactus06.jpg          	1	4	1	plant_cactus06.jpg   	plant    	6	cactus    	4	cactus06    	45	alive    	1	still	0	natural 	1	n	0	0        	 	0.0	0	130.404897600005	130.504889199976	0.0999915999709628
108603	100	277	stimuli/animals/horse/animal_horse01.jpg         	1	4	1	animal_horse01.jpg   	animals  	0	horse     	20	horse01     	200	alive    	1	moves	1	natural 	1	n	0	1        	f	0.304984999995213	1	130.554898199975	130.654891500017	0.0999933000421152
108753	100	278	stimuli/nonmovNat/crystal/nmn_crystal06.jpg      	1	4	1	nmn_crystal06.jpg    	nonmovNat	5	crystal   	10	crystal06   	105	not_alive	0	still	0	natural 	1	n	0	0        	 	0.0	0	130.704905599996	130.80489759997	0.0999919999740086
108903	100	279	stimuli/animals2/lemur/animal_lemur08.jpg        	1	4	1	animal_lemur08.jpg   	animals2 	1	lemur     	23	lemur08     	237	alive    	1	moves	1	natural 	1	n	0	0        	 	0.0	0	130.854909599992	130.954903599981	0.0999939999892376
109053	100	280	stimuli/plant/tree/plant_tree08.jpg              	1	4	1	plant_tree08.jpg     	plant    	6	tree      	35	tree08      	357	alive    	1	still	0	natural 	1	n	0	0        	 	0.0	0	131.00491269998	131.104903500003	0.0999908000230789
109203	100	281	stimuli/plant2/palmtree/plant_palmtree06.jpg     	1	4	1	plant_palmtree06.jpg 	plant2   	7	palmtree  	27	palmtree06  	275	alive    	1	still	0	natural 	1	n	0	0        	 	0.0	0	131.154916899977	131.254909300012	0.0999924000352621
109353	100	282	stimuli/animals2/whale/animal_whale10.jpg        	1	4	1	animal_whale10.jpg   	animals2 	1	whale     	39	whale10     	399	alive    	1	moves	1	natural 	1	n	0	0        	 	0.0	0	131.304919100017	131.404927199997	0.100008099980187
109503	100	283	stimuli/animals/eagle/animal_eagle02.jpg         	1	4	1	animal_eagle02.jpg   	animals  	0	eagle     	13	eagle02     	131	alive    	1	moves	1	natural 	1	n	0	0        	 	0.0	0	131.454925399972	131.554917400004	0.0999920000322163
109653	100	284	stimuli/plant2/palmtree/plant_palmtree02.jpg     	1	4	1	plant_palmtree02.jpg 	plant2   	7	palmtree  	27	palmtree02  	271	alive    	1	still	0	natural 	1	n	0	0        	 	0.0	0	131.604929199966	131.704920999997	0.0999918000306934
109803	100	285	stimuli/nonmovNat/shell/nmn_shell09.jpg          	1	4	1	nmn_shell09.jpg      	nonmovNat	5	shell     	32	shell09     	328	not_alive	0	still	0	natural 	1	n	0	0        	 	0.0	0	131.754931200005	131.854923799983	0.0999925999785774
109953	100	286	stimuli/nonmovArt/mug/nma_mug01.jpg              	1	4	1	nma_mug01.jpg        	nonmovArt	4	mug       	26	mug01       	260	not_alive	0	still	0	artefact	0	n	0	0        	 	0.0	0	131.904935600003	132.00492929999	0.0999936999869533
110103	100	287	stimuli/nonmovArt/bench/nma_bench01.jpg          	1	4	1	nma_bench01.jpg      	nonmovArt	4	bench     	1	bench01     	10	not_alive	0	still	0	artefact	0	n	0	0        	 	0.0	0	132.054940200003	132.154933099984	0.0999928999808617
110253	100	288	stimuli/nonmovNat/rock/nmn_rock03.jpg            	1	4	1	nmn_rock03.jpg       	nonmovNat	5	rock      	30	rock03      	302	not_alive	0	still	0	natural 	1	n	0	0        	 	0.0	0	132.204946700018	132.304955500003	0.100008799985517
110403	100	289	stimuli/movNat/fire/mn_fire06.jpg                	1	4	1	mn_fire06.jpg        	movNat   	3	fire      	15	fire06      	155	not_alive	0	moves	1	natural 	1	n	0	0        	 	0.0	0	132.354947699991	132.454939599964	0.0999918999732472
110553	100	290	stimuli/animals2/pigeon/animal_pigeon08.jpg      	1	4	1	animal_pigeon08.jpg  	animals2 	1	pigeon    	28	pigeon08    	287	alive    	1	moves	1	natural 	1	n	0	0        	 	0.0	0	132.50495089998	132.604945499974	0.0999945999938063
110703	100	291	stimuli/plant2/clover/plant_clover04.jpg         	1	4	1	plant_clover04.jpg   	plant2   	7	clover    	9	clover04    	93	alive    	1	still	0	natural 	1	n	0	0        	 	0.0	0	132.654955899983	132.754949399969	0.0999934999854304
110853	100	292	stimuli/movNat/fire/mn_fire08.jpg                	1	4	1	mn_fire08.jpg        	movNat   	3	fire      	15	fire08      	157	not_alive	0	moves	1	natural 	1	n	0	0        	 	0.0	0	132.804958999972	132.904952500015	0.099993500043638
111003	100	293	stimuli/nonmovArt/lock/nma_lock02.jpg            	1	4	1	nma_lock02.jpg       	nonmovArt	4	lock      	24	lock02      	241	not_alive	0	still	0	artefact	0	n	0	0        	 	0.0	0	132.954964099976	133.054957200016	0.0999931000405922
111153	100	294	stimuli/animals/dog/animal_dog08.jpg             	1	4	1	animal_dog08.jpg     	animals  	0	dog       	11	dog08       	117	alive    	1	moves	1	natural 	1	n	0	0        	 	0.0	0	133.104968099971	133.204958899994	0.0999908000230789
111303	100	295	stimuli/movNat/waterfall/mn_waterfall10.jpg      	1	4	1	mn_waterfall10.jpg   	movNat   	3	waterfall 	37	waterfall10 	379	not_alive	0	moves	1	natural 	1	n	0	0        	 	0.0	0	133.254970600014	133.354967299965	0.0999966999515891
111453	100	296	stimuli/movNat/hotspring/mn_hotspring03.jpg      	1	4	1	mn_hotspring03.jpg   	movNat   	3	hotspring 	21	hotspring03 	212	not_alive	0	moves	1	natural 	1	n	0	0        	 	0.0	0	133.404975000012	133.504966999986	0.0999919999740086
111603	100	297	stimuli/nonmovNat/sand/nmn_sand02.jpg            	1	4	1	nmn_sand02.jpg       	nonmovNat	5	sand      	31	sand02      	311	not_alive	0	still	0	natural 	1	n	0	0        	 	0.0	0	133.554979600012	133.654986299982	0.100006699969526
111753	100	298	stimuli/nonmovArt/headphones/nma_headphones07.jpg	1	4	1	nma_headphones07.jpg 	nonmovArt	4	headphones	18	headphones07	186	not_alive	0	still	0	artefact	0	n	0	0        	 	0.0	0	133.704985099961	133.804977899999	0.0999928000383079
111903	100	299	stimuli/animals2/tiger/animal_tiger01.jpg        	1	4	1	animal_tiger01.jpg   	animals2 	1	tiger     	33	tiger01     	330	alive    	1	moves	1	natural 	1	n	0	0        	 	0.0	0	133.8549872	133.954977899964	0.0999906999641098
112053	100	300	stimuli/movNat/waves/mn_waves07.jpg              	1	4	1	mn_waves07.jpg       	movNat   	3	waves     	38	waves07     	386	not_alive	0	moves	1	natural 	1	n	0	0        	 	0.0	0	134.004990799993	134.104985999991	0.099995199998375
112203	100	301	stimuli/movNat/waves/mn_waves01.jpg              	1	4	1	mn_waves01.jpg       	movNat   	3	waves     	38	waves01     	380	not_alive	0	moves	1	natural 	1	n	0	0        	 	0.0	0	134.154994699988	134.255000900012	0.100006200023927
112353	100	302	stimuli/movArt/train/ma_train05.jpg              	1	4	1	ma_train05.jpg       	movArt   	2	train     	34	train05     	344	not_alive	0	moves	1	artefact	0	n	0	0        	 	0.0	0	134.304999399988	134.404990800016	0.0999914000276476
112503	100	303	stimuli/nonmovNat/rock/nmn_rock08.jpg            	1	4	1	nmn_rock08.jpg       	nonmovNat	5	rock      	30	rock08      	307	not_alive	0	still	0	natural 	1	n	0	0        	 	0.0	0	134.45500149997	134.555013899982	0.100012400012929
112653	100	304	stimuli/plant/vine/plant_vine08.jpg              	1	4	1	plant_vine08.jpg     	plant    	6	vine      	36	vine08      	367	alive    	1	still	0	natural 	1	n	0	0        	 	0.0	0	134.605006599973	134.704997699999	0.0999911000253633
112803	100	305	stimuli/plant/grass/plant_grass02.jpg            	1	4	1	plant_grass02.jpg    	plant    	6	grass     	17	grass02     	171	alive    	1	still	0	natural 	1	n	0	0        	 	0.0	0	134.755009100016	134.855004999961	0.0999958999454975
112953	100	306	stimuli/nonmovArt/clothespeg/nma_clothespeg06.jpg	1	4	1	nma_clothespeg06.jpg 	nonmovArt	4	clothespeg	8	clothespeg06	85	not_alive	0	still	0	artefact	0	n	0	0        	 	0.0	0	134.905014999968	135.005008200009	0.0999932000413537
113103	100	307	stimuli/nonmovArt/clothespeg/nma_clothespeg07.jpg	1	4	1	nma_clothespeg07.jpg 	nonmovArt	4	clothespeg	8	clothespeg07	86	not_alive	0	still	0	artefact	0	n	0	0        	 	0.0	0	135.055017100007	135.155012600007	0.0999955000006594
113253	100	308	stimuli/movNat/river/mn_river10.jpg              	1	4	1	mn_river10.jpg       	movNat   	3	river     	29	river10     	299	not_alive	0	moves	1	natural 	1	n	0	0        	 	0.0	0	135.205024399969	135.30501489999	0.0999905000207946
113403	100	309	stimuli/plant/flower/plant_flower01.jpg          	1	4	1	plant_flower01.jpg   	plant    	6	flower    	16	flower01    	160	alive    	1	still	0	natural 	1	n	0	0        	 	0.0	0	135.355027000012	135.455019699992	0.0999926999793388
113553	100	310	stimuli/movArt/car/ma_car02.jpg                  	1	4	1	ma_car02.jpg         	movArt   	2	car       	5	car02       	51	not_alive	0	moves	1	artefact	0	n	0	0        	 	0.0	0	135.505047999963	135.605022899981	0.0999749000184238
113703	100	311	stimuli/animals2/bee/animal_bee07.jpg            	1	4	1	animal_bee07.jpg     	animals2 	1	bee       	0	bee07       	6	alive    	1	moves	1	natural 	1	n	0	0        	 	0.0	0	135.655034800002	135.755025899969	0.0999910999671556
113853	100	312	stimuli/plant/cactus/plant_cactus09.jpg          	1	4	1	plant_cactus09.jpg   	plant    	6	cactus    	4	cactus09    	48	alive    	1	still	0	natural 	1	n	0	0        	 	0.0	0	135.80503519997	135.905029799964	0.0999945999938063
114003	100	313	stimuli/nonmovArt/lock/nma_lock04.jpg            	1	4	1	nma_lock04.jpg       	nonmovArt	4	lock      	24	lock04      	243	not_alive	0	still	0	artefact	0	n	0	0        	 	0.0	0	135.955041599984	136.055034299963	0.0999926999793388
114153	100	314	stimuli/movArt/bus/ma_bus03.jpg                  	1	4	1	ma_bus03.jpg         	movArt   	2	bus       	3	bus03       	32	not_alive	0	moves	1	artefact	0	n	0	0        	 	0.0	0	136.10504699999	136.205038999964	0.0999919999740086
114303	100	315	stimuli/nonmovArt/mug/nma_mug03.jpg              	1	4	1	nma_mug03.jpg        	nonmovArt	4	mug       	26	mug03       	262	not_alive	0	still	0	artefact	0	n	0	0        	 	0.0	0	136.255049699976	136.355042600015	0.0999929000390694
114453	100	316	stimuli/movArt/helicopter/ma_helicopter03.jpg    	1	4	1	ma_helicopter03.jpg  	movArt   	2	helicopter	19	helicopter03	192	not_alive	0	moves	1	artefact	0	n	0	0        	 	0.0	0	136.405054299976	136.505045500002	0.0999912000261247
114603	100	317	stimuli/animals/horse/animal_horse06.jpg         	1	4	1	animal_horse06.jpg   	animals  	0	horse     	20	horse06     	205	alive    	1	moves	1	natural 	1	n	0	0        	 	0.0	0	136.555057599966	136.655050100002	0.0999925000360236
114753	100	318	stimuli/nonmovNat/shell/nmn_shell07.jpg          	1	4	1	nmn_shell07.jpg      	nonmovNat	5	shell     	32	shell07     	326	not_alive	0	still	0	natural 	1	n	0	0        	 	0.0	0	136.70509860001	136.805055200006	0.0999565999954939
114903	100	319	stimuli/plant2/clover/plant_clover01.jpg         	1	4	1	plant_clover01.jpg   	plant2   	7	clover    	9	clover01    	90	alive    	1	still	0	natural 	1	n	0	0        	 	0.0	0	136.855067399971	136.955059600004	0.0999922000337392
121120	100	320	stimuli/plant/tree/plant_tree03.jpg              	1	5	1	plant_tree03.jpg     	plant    	6	tree      	35	tree03      	352	alive    	1	still	0	natural 	1	n	0	0        	 	0.0	0	143.07190380001	143.171896699991	0.0999928999808617
121270	100	321	stimuli/animals2/whale/animal_whale07.jpg        	1	5	1	animal_whale07.jpg   	animals2 	1	whale     	39	whale07     	396	alive    	1	moves	1	natural 	1	n	0	0        	 	0.0	0	143.221908000007	143.321899099974	0.0999910999671556
121420	100	322	stimuli/animals/dolphin/animal_dolphin09.jpg     	1	5	1	animal_dolphin09.jpg 	animals  	0	dolphin   	12	dolphin09   	128	alive    	1	moves	1	natural 	1	n	0	0        	 	0.0	0	143.371909899986	143.471904899983	0.0999949999968521
121570	100	323	stimuli/movArt/train/ma_train07.jpg              	1	5	1	ma_train07.jpg       	movArt   	2	train     	34	train07     	346	not_alive	0	moves	1	artefact	0	n	0	0        	 	0.0	0	143.521915499994	143.621910599992	0.0999950999976136
121720	100	324	stimuli/nonmovArt/clothespeg/nma_clothespeg07.jpg	1	5	1	nma_clothespeg07.jpg 	nonmovArt	4	clothespeg	8	clothespeg07	86	not_alive	0	still	0	artefact	0	n	0	0        	 	0.0	0	143.671920099994	143.771925900015	0.100005800020881
121870	100	325	stimuli/nonmovNat/crystal/nmn_crystal09.jpg      	1	5	1	nmn_crystal09.jpg    	nonmovNat	5	crystal   	10	crystal09   	108	not_alive	0	still	0	natural 	1	n	0	0        	 	0.0	0	143.821923199983	143.921913700004	0.0999905000207946
122020	100	326	stimuli/plant2/lemontree/plant_lemontree10.jpg   	1	5	1	plant_lemontree10.jpg	plant2   	7	lemontree 	22	lemontree10 	229	alive    	1	still	0	natural 	1	n	0	0        	 	0.0	0	143.971926199971	144.071920399962	0.0999941999907605
122170	100	327	stimuli/movArt/car/ma_car02.jpg                  	1	5	1	ma_car02.jpg         	movArt   	2	car       	5	car02       	51	not_alive	0	moves	1	artefact	0	n	0	0        	 	0.0	0	144.121940699988	144.221925499965	0.099984799977392
122320	100	328	stimuli/plant2/clover/plant_clover10.jpg         	1	5	1	plant_clover10.jpg   	plant2   	7	clover    	9	clover10    	99	alive    	1	still	0	natural 	1	n	0	0        	 	0.0	0	144.271933600015	144.371930199966	0.0999965999508277
122470	100	329	stimuli/animals2/whale/animal_whale09.jpg        	1	5	1	animal_whale09.jpg   	animals2 	1	whale     	39	whale09     	398	alive    	1	moves	1	natural 	1	n	0	0        	 	0.0	0	144.421937600011	144.521932000003	0.0999943999922834
122620	100	330	stimuli/plant2/fern/plant_fern06.jpg             	1	5	1	plant_fern06.jpg     	plant2   	7	fern      	14	fern06      	145	alive    	1	still	0	natural 	1	n	0	0        	 	0.0	0	144.57194210001	144.671936900006	0.0999947999953292
122770	100	331	stimuli/nonmovArt/bench/nma_bench07.jpg          	1	5	1	nma_bench07.jpg      	nonmovArt	4	bench     	1	bench07     	16	not_alive	0	still	0	artefact	0	n	0	0        	 	0.0	0	144.721947600017	144.821951399965	0.100003799947444
122920	100	332	stimuli/nonmovNat/rock/nmn_rock04.jpg            	1	5	1	nmn_rock04.jpg       	nonmovNat	5	rock      	30	rock04      	303	not_alive	0	still	0	natural 	1	n	1	0        	 	0.0	0	144.871949399996	144.971943399985	0.0999939999892376
123070	100	333	stimuli/movNat/hotspring/mn_hotspring05.jpg      	1	5	1	mn_hotspring05.jpg   	movNat   	3	hotspring 	21	hotspring05 	214	not_alive	0	moves	1	natural 	1	n	0	0        	 	0.0	0	145.021954399999	145.121946699976	0.099992299976293
123220	100	334	stimuli/plant/grass/plant_grass02.jpg            	1	5	1	plant_grass02.jpg    	plant    	6	grass     	17	grass02     	171	alive    	1	still	0	natural 	1	n	0	1        	f	0.391986100003123	1	145.171956999984	145.271952099982	0.0999950999976136
123370	100	335	stimuli/nonmovNat/cliff/nmn_cliff08.jpg          	1	5	1	nmn_cliff08.jpg      	nonmovNat	5	cliff     	7	cliff08     	77	not_alive	0	still	0	natural 	1	n	0	0        	 	0.0	0	145.321962799993	145.42195779999	0.0999949999968521
123520	100	336	stimuli/plant2/fern/plant_fern08.jpg             	1	5	1	plant_fern08.jpg     	plant2   	7	fern      	14	fern08      	147	alive    	1	still	0	natural 	1	n	0	0        	 	0.0	0	145.47196559998	145.571969599987	0.100004000007175
123670	100	337	stimuli/plant2/moss/plant_moss04.jpg             	1	5	1	plant_moss04.jpg     	plant2   	7	moss      	25	moss04      	253	alive    	1	still	0	natural 	1	n	0	0        	 	0.0	0	145.62196889997	145.721963099961	0.0999941999907605
123820	100	338	stimuli/movNat/river/mn_river07.jpg              	1	5	1	mn_river07.jpg       	movNat   	3	river     	29	river07     	296	not_alive	0	moves	1	natural 	1	n	0	0        	 	0.0	0	145.77197349997	145.871966400009	0.0999929000390694
123970	100	339	stimuli/nonmovNat/shell/nmn_shell01.jpg          	1	5	1	nmn_shell01.jpg      	nonmovNat	5	shell     	32	shell01     	320	not_alive	0	still	0	natural 	1	n	0	0        	 	0.0	0	145.921976800018	146.021965499967	0.0999886999488808
124120	100	340	stimuli/plant/flower/plant_flower10.jpg          	1	5	1	plant_flower10.jpg   	plant    	6	flower    	16	flower10    	169	alive    	1	still	0	natural 	1	n	0	0        	 	0.0	0	146.071975899977	146.171969599964	0.0999936999869533
124270	100	341	stimuli/movArt/helicopter/ma_helicopter01.jpg    	1	5	1	ma_helicopter01.jpg  	movArt   	2	helicopter	19	helicopter01	190	not_alive	0	moves	1	artefact	0	n	0	0        	 	0.0	0	146.221979699971	146.321972900012	0.0999932000413537
124420	100	342	stimuli/plant2/palmtree/plant_palmtree09.jpg     	1	5	1	plant_palmtree09.jpg 	plant2   	7	palmtree  	27	palmtree09  	278	alive    	1	still	0	natural 	1	n	0	0        	 	0.0	0	146.371983199962	146.471975699998	0.0999925000360236
124570	100	343	stimuli/plant/grass/plant_grass03.jpg            	1	5	1	plant_grass03.jpg    	plant    	6	grass     	17	grass03     	172	alive    	1	still	0	natural 	1	n	1	0        	 	0.0	0	146.521989699977	146.6219882	0.0999985000235029
124720	100	344	stimuli/animals/dolphin/animal_dolphin09.jpg     	1	5	1	animal_dolphin09.jpg 	animals  	0	dolphin   	12	dolphin09   	128	alive    	1	moves	1	natural 	1	n	0	0        	 	0.0	0	146.672012399998	146.771984299994	0.0999718999955803
124870	100	345	stimuli/plant2/lemontree/plant_lemontree02.jpg   	1	5	1	plant_lemontree02.jpg	plant2   	7	lemontree 	22	lemontree02 	221	alive    	1	still	0	natural 	1	n	0	1        	f	0.392011800024193	1	146.82199669996	146.921988099988	0.0999914000276476
125020	100	346	stimuli/plant/tree/plant_tree04.jpg              	1	5	1	plant_tree04.jpg     	plant    	6	tree      	35	tree04      	353	alive    	1	still	0	natural 	1	n	0	0        	 	0.0	0	146.971997899993	147.071995300008	0.0999974000151269
125170	100	347	stimuli/movArt/bus/ma_bus03.jpg                  	1	5	1	ma_bus03.jpg         	movArt   	2	bus       	3	bus03       	32	not_alive	0	moves	1	artefact	0	n	0	0        	 	0.0	0	147.122005300014	147.222012899991	0.100007599976379
125320	100	348	stimuli/animals/dolphin/animal_dolphin09.jpg     	1	5	1	animal_dolphin09.jpg 	animals  	0	dolphin   	12	dolphin09   	128	alive    	1	moves	1	natural 	1	n	0	0        	 	0.0	0	147.272006599989	147.372000499978	0.0999938999884762
125470	100	349	stimuli/animals2/tiger/animal_tiger09.jpg        	1	5	1	animal_tiger09.jpg   	animals2 	1	tiger     	33	tiger09     	338	alive    	1	moves	1	natural 	1	n	0	0        	 	0.0	0	147.422026499989	147.522004599974	0.0999780999845825
125620	100	350	stimuli/nonmovNat/sand/nmn_sand04.jpg            	1	5	1	nmn_sand04.jpg       	nonmovNat	5	sand      	31	sand04      	313	not_alive	0	still	0	natural 	1	n	0	0        	 	0.0	0	147.572015099984	147.672010699986	0.0999956000014208
125770	100	351	stimuli/plant/cactus/plant_cactus02.jpg          	1	5	1	plant_cactus02.jpg   	plant    	6	cactus    	4	cactus02    	41	alive    	1	still	0	natural 	1	n	0	0        	 	0.0	0	147.722019799985	147.822011200013	0.0999914000276476
125920	100	352	stimuli/nonmovNat/cliff/nmn_cliff05.jpg          	1	5	1	nmn_cliff05.jpg      	nonmovNat	5	cliff     	7	cliff05     	74	not_alive	0	still	0	natural 	1	n	0	0        	 	0.0	0	147.872023399977	147.972016500018	0.0999931000405922
126070	100	353	stimuli/movArt/boat/ma_boat03.jpg                	1	5	1	ma_boat03.jpg        	movArt   	2	boat      	2	boat03      	22	not_alive	0	moves	1	artefact	0	n	1	0        	 	0.0	0	148.022025700018	148.122021100018	0.0999953999998979
126220	100	354	stimuli/animals2/bee/animal_bee03.jpg            	1	5	1	animal_bee03.jpg     	animals2 	1	bee       	0	bee03       	2	alive    	1	moves	1	natural 	1	n	0	0        	 	0.0	0	148.172031199967	148.272024800011	0.0999936000443995
126370	100	355	stimuli/animals2/pigeon/animal_pigeon10.jpg      	1	5	1	animal_pigeon10.jpg  	animals2 	1	pigeon    	28	pigeon10    	289	alive    	1	moves	1	natural 	1	n	0	1        	f	0.392051499977242	1	148.322055500001	148.422030100017	0.0999746000161394
126520	100	356	stimuli/plant2/moss/plant_moss03.jpg             	1	5	1	plant_moss03.jpg     	plant2   	7	moss      	25	moss03      	252	alive    	1	still	0	natural 	1	n	0	0        	 	0.0	0	148.472038100008	148.572031799995	0.0999936999869533
126670	100	357	stimuli/nonmovNat/cliff/nmn_cliff03.jpg          	1	5	1	nmn_cliff03.jpg      	nonmovNat	5	cliff     	7	cliff03     	72	not_alive	0	still	0	natural 	1	n	0	0        	 	0.0	0	148.622041299997	148.72203579999	0.0999944999930449
126820	100	358	stimuli/animals2/bee/animal_bee04.jpg            	1	5	1	animal_bee04.jpg     	animals2 	1	bee       	0	bee04       	3	alive    	1	moves	1	natural 	1	n	0	0        	 	0.0	0	148.772046900005	148.87203899998	0.0999920999747701
126970	100	359	stimuli/movNat/river/mn_river01.jpg              	1	5	1	mn_river01.jpg       	movNat   	3	river     	29	river01     	290	not_alive	0	moves	1	natural 	1	n	0	0        	 	0.0	0	148.922050699999	149.022043999983	0.0999932999839075
127120	100	360	stimuli/movArt/boat/ma_boat08.jpg                	1	5	1	ma_boat08.jpg        	movArt   	2	boat      	2	boat08      	27	not_alive	0	moves	1	artefact	0	n	0	0        	 	0.0	0	149.072055600001	149.17204949999	0.0999938999884762
127270	100	361	stimuli/animals2/bee/animal_bee06.jpg            	1	5	1	animal_bee06.jpg     	animals2 	1	bee       	0	bee06       	5	alive    	1	moves	1	natural 	1	n	0	0        	 	0.0	0	149.22205609997	149.322050299961	0.0999941999907605
127420	100	362	stimuli/nonmovArt/bench/nma_bench10.jpg          	1	5	1	nma_bench10.jpg      	nonmovArt	4	bench     	1	bench10     	19	not_alive	0	still	0	artefact	0	n	0	0        	 	0.0	0	149.372063099989	149.472073199984	0.100010099995416
127570	100	363	stimuli/movNat/hotspring/mn_hotspring06.jpg      	1	5	1	mn_hotspring06.jpg   	movNat   	3	hotspring 	21	hotspring06 	215	not_alive	0	moves	1	natural 	1	n	0	0        	 	0.0	0	149.522082499985	149.622058100009	0.0999756000237539
127720	100	364	stimuli/nonmovNat/sand/nmn_sand03.jpg            	1	5	1	nmn_sand03.jpg       	nonmovNat	5	sand      	31	sand03      	312	not_alive	0	still	0	natural 	1	n	0	0        	 	0.0	0	149.672068899963	149.772063800017	0.0999949000542983
127870	100	365	stimuli/plant/tree/plant_tree02.jpg              	1	5	1	plant_tree02.jpg     	plant    	6	tree      	35	tree02      	351	alive    	1	still	0	natural 	1	n	0	0        	 	0.0	0	149.822075199976	149.922069399967	0.0999941999907605
128020	100	366	stimuli/nonmovArt/lock/nma_lock04.jpg            	1	5	1	nma_lock04.jpg       	nonmovArt	4	lock      	24	lock04      	243	not_alive	0	still	0	artefact	0	n	0	0        	 	0.0	0	149.972078599967	150.072074199968	0.0999956000014208
128170	100	367	stimuli/animals/dolphin/animal_dolphin06.jpg     	1	5	1	animal_dolphin06.jpg 	animals  	0	dolphin   	12	dolphin06   	125	alive    	1	moves	1	natural 	1	n	0	0        	 	0.0	0	150.122084799979	150.222075900005	0.0999911000253633
128320	100	368	stimuli/plant/cactus/plant_cactus07.jpg          	1	5	1	plant_cactus07.jpg   	plant    	6	cactus    	4	cactus07    	46	alive    	1	still	0	natural 	1	n	0	0        	 	0.0	0	150.272085700009	150.3720799	0.0999941999907605
128470	100	369	stimuli/nonmovArt/lock/nma_lock10.jpg            	1	5	1	nma_lock10.jpg       	nonmovArt	4	lock      	24	lock10      	249	not_alive	0	still	0	artefact	0	n	1	0        	 	0.0	0	150.422090000007	150.522083499993	0.0999934999854304
128620	100	370	stimuli/animals/eagle/animal_eagle10.jpg         	1	5	1	animal_eagle10.jpg   	animals  	0	eagle     	13	eagle10     	139	alive    	1	moves	1	natural 	1	n	0	0        	 	0.0	0	150.572095800017	150.672088099993	0.099992299976293
128770	100	371	stimuli/animals/horse/animal_horse02.jpg         	1	5	1	animal_horse02.jpg   	animals  	0	horse     	20	horse02     	201	alive    	1	moves	1	natural 	1	n	0	1        	f	0.292181500000879	1	150.722098700004	150.822091999988	0.0999932999839075
128920	100	372	stimuli/plant/tree/plant_tree04.jpg              	1	5	1	plant_tree04.jpg     	plant    	6	tree      	35	tree04      	353	alive    	1	still	0	natural 	1	n	0	0        	 	0.0	0	150.872102299996	150.972098300001	0.0999960000044666
129070	100	373	stimuli/animals/dog/animal_dog10.jpg             	1	5	1	animal_dog10.jpg     	animals  	0	dog       	11	dog10       	119	alive    	1	moves	1	natural 	1	n	0	0        	 	0.0	0	151.022104999982	151.122101399989	0.0999964000075124
129220	100	374	stimuli/plant2/lemontree/plant_lemontree09.jpg   	1	5	1	plant_lemontree09.jpg	plant2   	7	lemontree 	22	lemontree09 	228	alive    	1	still	0	natural 	1	n	0	0        	 	0.0	0	151.172111099993	151.272104599979	0.0999934999854304
129370	100	375	stimuli/animals/horse/animal_horse02.jpg         	1	5	1	animal_horse02.jpg   	animals  	0	horse     	20	horse02     	201	alive    	1	moves	1	natural 	1	n	0	0        	 	0.0	0	151.322113399976	151.422132399981	0.100019000004977
129520	100	376	stimuli/animals/cat/animal_cat06.jpg             	1	5	1	animal_cat06.jpg     	animals  	0	cat       	6	cat06       	65	alive    	1	moves	1	natural 	1	n	0	0        	 	0.0	0	151.472116799967	151.572112299968	0.0999955000006594
129670	100	377	stimuli/movArt/helicopter/ma_helicopter08.jpg    	1	5	1	ma_helicopter08.jpg  	movArt   	2	helicopter	19	helicopter08	197	not_alive	0	moves	1	artefact	0	n	0	0        	 	0.0	0	151.622122199973	151.722115100012	0.0999929000390694
129820	100	378	stimuli/animals/dolphin/animal_dolphin04.jpg     	1	5	1	animal_dolphin04.jpg 	animals  	0	dolphin   	12	dolphin04   	123	alive    	1	moves	1	natural 	1	n	0	0        	 	0.0	0	151.772125899966	151.872119500011	0.0999936000443995
129970	100	379	stimuli/plant2/fern/plant_fern04.jpg             	1	5	1	plant_fern04.jpg     	plant2   	7	fern      	14	fern04      	143	alive    	1	still	0	natural 	1	n	0	0        	 	0.0	0	151.922129300016	152.022129799996	0.100000499980524
130120	100	380	stimuli/nonmovArt/headphones/nma_headphones03.jpg	1	5	1	nma_headphones03.jpg 	nonmovArt	4	headphones	18	headphones03	182	not_alive	0	still	0	artefact	0	n	0	0        	 	0.0	0	152.072134799964	152.172127099999	0.0999923000345007
130270	100	381	stimuli/animals2/lemur/animal_lemur08.jpg        	1	5	1	animal_lemur08.jpg   	animals2 	1	lemur     	23	lemur08     	237	alive    	1	moves	1	natural 	1	n	0	0        	 	0.0	0	152.222137400007	152.322130199987	0.0999927999801002
130420	100	382	stimuli/movNat/fire/mn_fire06.jpg                	1	5	1	mn_fire06.jpg        	movNat   	3	fire      	15	fire06      	155	not_alive	0	moves	1	natural 	1	n	0	0        	 	0.0	0	152.372164	152.472135899996	0.0999718999955803
130570	100	383	stimuli/nonmovNat/sand/nmn_sand02.jpg            	1	5	1	nmn_sand02.jpg       	nonmovNat	5	sand      	31	sand02      	311	not_alive	0	still	0	natural 	1	n	0	0        	 	0.0	0	152.522147900017	152.622155099991	0.100007199973334
130720	100	384	stimuli/nonmovNat/sand/nmn_sand04.jpg            	1	5	1	nmn_sand04.jpg       	nonmovNat	5	sand      	31	sand04      	313	not_alive	0	still	0	natural 	1	n	0	0        	 	0.0	0	152.672149899998	152.772141099966	0.099991199967917
130870	100	385	stimuli/plant2/palmtree/plant_palmtree09.jpg     	1	5	1	plant_palmtree09.jpg 	plant2   	7	palmtree  	27	palmtree09  	278	alive    	1	still	0	natural 	1	n	0	0        	 	0.0	0	152.822153399989	152.922153299965	0.0999998999759555
131020	100	386	stimuli/animals2/whale/animal_whale01.jpg        	1	5	1	animal_whale01.jpg   	animals2 	1	whale     	39	whale01     	390	alive    	1	moves	1	natural 	1	n	0	0        	 	0.0	0	152.972158599994	153.072150599968	0.0999919999740086
131170	100	387	stimuli/movArt/bus/ma_bus05.jpg                  	1	5	1	ma_bus05.jpg         	movArt   	2	bus       	3	bus05       	34	not_alive	0	moves	1	artefact	0	n	0	0        	 	0.0	0	153.12216259999	153.222155799973	0.099993199983146
131320	100	388	stimuli/movNat/river/mn_river06.jpg              	1	5	1	mn_river06.jpg       	movNat   	3	river     	29	river06     	295	not_alive	0	moves	1	natural 	1	n	0	0        	 	0.0	0	153.272166299983	153.372160199971	0.0999938999884762
131470	100	389	stimuli/nonmovArt/clothespeg/nma_clothespeg04.jpg	1	5	1	nma_clothespeg04.jpg 	nonmovArt	4	clothespeg	8	clothespeg04	83	not_alive	0	still	0	artefact	0	n	0	0        	 	0.0	0	153.422169299971	153.522163899965	0.0999945999938063
131620	100	390	stimuli/movArt/boat/ma_boat10.jpg                	1	5	1	ma_boat10.jpg        	movArt   	2	boat      	2	boat10      	29	not_alive	0	moves	1	artefact	0	n	0	0        	 	0.0	0	153.572173299966	153.672174900014	0.100001600047108
131770	100	391	stimuli/movArt/train/ma_train08.jpg              	1	5	1	ma_train08.jpg       	movArt   	2	train     	34	train08     	347	not_alive	0	moves	1	artefact	0	n	0	0        	 	0.0	0	153.722178199969	153.822172300017	0.0999941000482068
131920	100	392	stimuli/animals/eagle/animal_eagle03.jpg         	1	5	1	animal_eagle03.jpg   	animals  	0	eagle     	13	eagle03     	132	alive    	1	moves	1	natural 	1	n	0	0        	 	0.0	0	153.872200099984	153.972173799993	0.0999737000092864
132070	100	393	stimuli/movNat/river/mn_river02.jpg              	1	5	1	mn_river02.jpg       	movNat   	3	river     	29	river02     	291	not_alive	0	moves	1	natural 	1	n	0	0        	 	0.0	0	154.022200600011	154.122180000006	0.0999793999944814
132220	100	394	stimuli/animals/cat/animal_cat07.jpg             	1	5	1	animal_cat07.jpg     	animals  	0	cat       	6	cat07       	66	alive    	1	moves	1	natural 	1	n	0	0        	 	0.0	0	154.172208199976	154.272182799992	0.0999746000161394
132370	100	395	stimuli/animals2/tiger/animal_tiger05.jpg        	1	5	1	animal_tiger05.jpg   	animals2 	1	tiger     	33	tiger05     	334	alive    	1	moves	1	natural 	1	n	0	0        	 	0.0	0	154.322194000008	154.422186999989	0.0999929999816231
132520	100	396	stimuli/plant2/moss/plant_moss05.jpg             	1	5	1	plant_moss05.jpg     	plant2   	7	moss      	25	moss05      	254	alive    	1	still	0	natural 	1	n	0	0        	 	0.0	0	154.472197900002	154.572188899969	0.0999909999663942
132670	100	397	stimuli/plant/grass/plant_grass01.jpg            	1	5	1	plant_grass01.jpg    	plant    	6	grass     	17	grass01     	170	alive    	1	still	0	natural 	1	n	0	0        	 	0.0	0	154.622201899998	154.722197299998	0.0999953999998979
132820	100	398	stimuli/plant/vine/plant_vine01.jpg              	1	5	1	plant_vine01.jpg     	plant    	6	vine      	36	vine01      	360	alive    	1	still	0	natural 	1	n	0	0        	 	0.0	0	154.772204899986	154.872198499972	0.0999935999861918
132970	100	399	stimuli/animals2/pigeon/animal_pigeon07.jpg      	1	5	1	animal_pigeon07.jpg  	animals2 	1	pigeon    	28	pigeon07    	286	alive    	1	moves	1	natural 	1	n	0	0        	 	0.0	0	154.922209299984	155.022201500018	0.0999922000337392
145820	100	400	stimuli/animals2/bee/animal_bee02.jpg            	1	6	1	animal_bee02.jpg     	animals2 	1	bee       	0	bee02       	1	alive    	1	moves	1	natural 	1	n	0	0        	 	0.0	0	167.772556299984	167.872568299994	0.100012000009883
145970	100	401	stimuli/movNat/waterfall/mn_waterfall05.jpg      	1	6	1	mn_waterfall05.jpg   	movNat   	3	waterfall 	37	waterfall05 	374	not_alive	0	moves	1	natural 	1	n	0	0        	 	0.0	0	167.922557500016	168.022552500013	0.0999949999968521
146120	100	402	stimuli/animals2/pigeon/animal_pigeon02.jpg      	1	6	1	animal_pigeon02.jpg  	animals2 	1	pigeon    	28	pigeon02    	281	alive    	1	moves	1	natural 	1	n	0	0        	 	0.0	0	168.072561000008	168.172557200014	0.0999962000059895
146270	100	403	stimuli/nonmovNat/cliff/nmn_cliff08.jpg          	1	6	1	nmn_cliff08.jpg      	nonmovNat	5	cliff     	7	cliff08     	77	not_alive	0	still	0	natural 	1	n	0	0        	 	0.0	0	168.222566800017	168.322561700013	0.0999948999960907
146420	100	404	stimuli/animals/cat/animal_cat03.jpg             	1	6	1	animal_cat03.jpg     	animals  	0	cat       	6	cat03       	62	alive    	1	moves	1	natural 	1	n	0	0        	 	0.0	0	168.372571599961	168.472581900016	0.100010300055146
146570	100	405	stimuli/movArt/car/ma_car10.jpg                  	1	6	1	ma_car10.jpg         	movArt   	2	car       	5	car10       	59	not_alive	0	moves	1	artefact	0	n	0	0        	 	0.0	0	168.522576299962	168.622566699982	0.0999904000200331
146720	100	406	stimuli/plant/vine/plant_vine07.jpg              	1	6	1	plant_vine07.jpg     	plant    	6	vine      	36	vine07      	366	alive    	1	still	0	natural 	1	n	0	0        	 	0.0	0	168.672603000014	168.772570899979	0.0999678999651223
146870	100	407	stimuli/movNat/waterfall/mn_waterfall07.jpg      	1	6	1	mn_waterfall07.jpg   	movNat   	3	waterfall 	37	waterfall07 	376	not_alive	0	moves	1	natural 	1	n	0	0        	 	0.0	0	168.822594599973	168.922573399963	0.0999787999899127
147020	100	408	stimuli/plant2/lemontree/plant_lemontree06.jpg   	1	6	1	plant_lemontree06.jpg	plant2   	7	lemontree 	22	lemontree06 	225	alive    	1	still	0	natural 	1	n	0	0        	 	0.0	0	168.97258609999	169.072579899977	0.0999937999877147
147170	100	409	stimuli/movNat/fire/mn_fire01.jpg                	1	6	1	mn_fire01.jpg        	movNat   	3	fire      	15	fire01      	150	not_alive	0	moves	1	natural 	1	n	0	0        	 	0.0	0	169.122586999962	169.222622299974	0.100035300012678
147320	100	410	stimuli/plant/vine/plant_vine04.jpg              	1	6	1	plant_vine04.jpg     	plant    	6	vine      	36	vine04      	363	alive    	1	still	0	natural 	1	n	0	0        	 	0.0	0	169.272587299987	169.372581699979	0.0999943999922834
147470	100	411	stimuli/nonmovNat/crystal/nmn_crystal05.jpg      	1	6	1	nmn_crystal05.jpg    	nonmovNat	5	crystal   	10	crystal05   	104	not_alive	0	still	0	natural 	1	n	0	0        	 	0.0	0	169.42259219999	169.522603399993	0.100011200003792
147620	100	412	stimuli/animals2/whale/animal_whale08.jpg        	1	6	1	animal_whale08.jpg   	animals2 	1	whale     	39	whale08     	397	alive    	1	moves	1	natural 	1	n	0	0        	 	0.0	0	169.57259679999	169.672604699968	0.100007899978664
147770	100	413	stimuli/animals2/tiger/animal_tiger02.jpg        	1	6	1	animal_tiger02.jpg   	animals2 	1	tiger     	33	tiger02     	331	alive    	1	moves	1	natural 	1	n	0	0        	 	0.0	0	169.72260009998	169.822625299974	0.100025199993979
