onset	duration	eventnumber	stimulus_file	blockno	trialno	is_faststream	stim	stim_category	category_number	exemplar	exemplar_number	image_name	image_number	aliveness	aliveness_bin	movement	movement_bin	naturalness	naturalness_bin	response_hand_alive	istarget	response	keypressed	rt	correct	time_stimon	time_stimoff	stimdur
88249	100	0	stimuli/plant2/lemontree/plant_lemontree08.jpg   	1	1	1	plant_lemontree08.jpg	plant2   	7	lemontree 	22	lemontree08 	227	alive    	1	still	0	natural 	1	n	0	0        	 	0.0	0	75.7186098000093	75.8185988000041	0.0999889999948209
88399	100	1	stimuli/animals/cat/animal_cat09.jpg             	1	1	1	animal_cat09.jpg     	animals  	0	cat       	6	cat09       	68	alive    	1	moves	1	natural 	1	n	0	0        	 	0.0	0	75.8686164000101	75.9686011000013	0.0999846999911824
88549	100	2	stimuli/movNat/river/mn_river10.jpg              	1	1	1	mn_river10.jpg       	movNat   	3	river     	29	river10     	299	not_alive	0	moves	1	natural 	1	n	0	1        	f	0.0	0	76.0186099999992	76.1186068000097	0.0999968000105582
88699	100	3	stimuli/animals2/tiger/animal_tiger05.jpg        	1	1	1	animal_tiger05.jpg   	animals2 	1	tiger     	33	tiger05     	334	alive    	1	moves	1	natural 	1	n	0	0        	 	0.0	0	76.1686287000048	76.2686103000015	0.0999815999966813
88849	100	4	stimuli/animals/dog/animal_dog08.jpg             	1	1	1	animal_dog08.jpg     	animals  	0	dog       	11	dog08       	117	alive    	1	moves	1	natural 	1	n	0	0        	 	0.0	0	76.3186218000046	76.4186136000062	0.0999918000015896
88999	100	5	stimuli/nonmovArt/lock/nma_lock04.jpg            	1	1	1	nma_lock04.jpg       	nonmovArt	4	lock      	24	lock04      	243	not_alive	0	still	0	artefact	0	n	0	0        	 	0.0	0	76.4686232000094	76.5686168000102	0.0999936000007438
89149	100	6	stimuli/animals/horse/animal_horse08.jpg         	1	1	1	animal_horse08.jpg   	animals  	0	horse     	20	horse08     	207	alive    	1	moves	1	natural 	1	n	0	0        	 	0.0	0	76.6186277000088	76.7186224000034	0.0999946999945678
89300	100	7	stimuli/movArt/boat/ma_boat06.jpg                	1	1	1	ma_boat06.jpg        	movArt   	2	boat      	2	boat06      	25	not_alive	0	moves	1	artefact	0	n	0	0        	 	0.0	0	76.7689179000008	76.8686273000058	0.0997094000049401
89449	100	8	stimuli/animals2/lemur/animal_lemur04.jpg        	1	1	1	animal_lemur04.jpg   	animals2 	1	lemur     	23	lemur04     	233	alive    	1	moves	1	natural 	1	n	0	0        	 	0.0	0	76.9186340000015	77.0186398000078	0.100005800006329
89599	100	9	stimuli/movNat/waterfall/mn_waterfall05.jpg      	1	1	1	mn_waterfall05.jpg   	movNat   	3	waterfall 	37	waterfall05 	374	not_alive	0	moves	1	natural 	1	n	0	0        	 	0.0	0	77.0686382999993	77.1686347000068	0.0999964000075124
89749	100	10	stimuli/plant2/clover/plant_clover07.jpg         	1	1	1	plant_clover07.jpg   	plant2   	7	clover    	9	clover07    	96	alive    	1	still	0	natural 	1	n	0	0        	 	0.0	0	77.2186443000101	77.3186477999989	0.100003499988816
89899	100	11	stimuli/movArt/bus/ma_bus02.jpg                  	1	1	1	ma_bus02.jpg         	movArt   	2	bus       	3	bus02       	31	not_alive	0	moves	1	artefact	0	n	0	0        	 	0.0	0	77.3686459000019	77.4686423000094	0.0999964000075124
90049	100	12	stimuli/nonmovArt/clothespeg/nma_clothespeg10.jpg	1	1	1	nma_clothespeg10.jpg 	nonmovArt	4	clothespeg	8	clothespeg10	89	not_alive	0	still	0	artefact	0	n	0	0        	 	0.0	0	77.5186497000104	77.6186507000093	0.100000999998883
90199	100	13	stimuli/animals2/pigeon/animal_pigeon07.jpg      	1	1	1	animal_pigeon07.jpg  	animals2 	1	pigeon    	28	pigeon07    	286	alive    	1	moves	1	natural 	1	n	0	0        	 	0.0	0	77.6686556000059	77.768649900012	0.0999943000060739
90349	100	14	stimuli/nonmovArt/mug/nma_mug04.jpg              	1	1	1	nma_mug04.jpg        	nonmovArt	4	mug       	26	mug04       	263	not_alive	0	still	0	artefact	0	n	0	0        	 	0.0	0	77.8186581000046	77.9186670000054	0.10000890000083
90499	100	15	stimuli/plant/vine/plant_vine10.jpg              	1	1	1	plant_vine10.jpg     	plant    	6	vine      	36	vine10      	369	alive    	1	still	0	natural 	1	n	0	0        	 	0.0	0	77.9686638999992	78.0686679000064	0.100004000007175
90649	100	16	stimuli/movNat/river/mn_river02.jpg              	1	1	1	mn_river02.jpg       	movNat   	3	river     	29	river02     	291	not_alive	0	moves	1	natural 	1	n	0	0        	 	0.0	0	78.1186682999978	78.2186618999986	0.0999936000007438
90799	100	17	stimuli/animals/dolphin/animal_dolphin08.jpg     	1	1	1	animal_dolphin08.jpg 	animals  	0	dolphin   	12	dolphin08   	127	alive    	1	moves	1	natural 	1	n	0	0        	 	0.0	0	78.268670800011	78.3686644000118	0.0999936000007438
90949	100	18	stimuli/movArt/bus/ma_bus02.jpg                  	1	1	1	ma_bus02.jpg         	movArt   	2	bus       	3	bus02       	31	not_alive	0	moves	1	artefact	0	n	0	0        	 	0.0	0	78.4186875000014	78.518670400008	0.0999829000065802
91099	100	19	stimuli/plant2/fern/plant_fern10.jpg             	1	1	1	plant_fern10.jpg     	plant2   	7	fern      	14	fern10      	149	alive    	1	still	0	natural 	1	n	0	0        	 	0.0	0	78.5686772000045	78.668673600012	0.0999964000075124
91249	100	20	stimuli/nonmovArt/headphones/nma_headphones03.jpg	1	1	1	nma_headphones03.jpg 	nonmovArt	4	headphones	18	headphones03	182	not_alive	0	still	0	artefact	0	n	0	0        	 	0.0	0	78.7186821000068	78.8186775000067	0.0999953999998979
91399	100	21	stimuli/plant2/fern/plant_fern03.jpg             	1	1	1	plant_fern03.jpg     	plant2   	7	fern      	14	fern03      	142	alive    	1	still	0	natural 	1	n	0	0        	 	0.0	0	78.8686888000084	78.9686813000008	0.0999924999923678
91549	100	22	stimuli/nonmovArt/headphones/nma_headphones10.jpg	1	1	1	nma_headphones10.jpg 	nonmovArt	4	headphones	18	headphones10	189	not_alive	0	still	0	artefact	0	n	0	0        	 	0.0	0	79.0186914000078	79.1186868000077	0.0999953999998979
91699	100	23	stimuli/nonmovNat/rock/nmn_rock08.jpg            	1	1	1	nmn_rock08.jpg       	nonmovNat	5	rock      	30	rock08      	307	not_alive	0	still	0	natural 	1	n	0	0        	 	0.0	0	79.1686946000118	79.2686896000087	0.0999949999968521
91850	100	24	stimuli/plant2/palmtree/plant_palmtree05.jpg     	1	1	1	plant_palmtree05.jpg 	plant2   	7	palmtree  	27	palmtree05  	274	alive    	1	still	0	natural 	1	n	0	0        	 	0.0	0	79.3187106000114	79.4186921000073	0.0999814999959199
91999	100	25	stimuli/movNat/waves/mn_waves02.jpg              	1	1	1	mn_waves02.jpg       	movNat   	3	waves     	38	waves02     	381	not_alive	0	moves	1	natural 	1	n	1	0        	 	0.0	0	79.4687032000074	79.5686975999997	0.0999943999922834
92150	100	26	stimuli/movArt/bus/ma_bus06.jpg                  	1	1	1	ma_bus06.jpg         	movArt   	2	bus       	3	bus06       	35	not_alive	0	moves	1	artefact	0	n	0	0        	 	0.0	0	79.6187074000045	79.7187025000021	0.0999950999976136
92300	100	27	stimuli/plant/grass/plant_grass03.jpg            	1	1	1	plant_grass03.jpg    	plant    	6	grass     	17	grass03     	172	alive    	1	still	0	natural 	1	n	0	0        	 	0.0	0	79.7687144000083	79.8687090000021	0.0999945999938063
92450	100	28	stimuli/nonmovNat/sand/nmn_sand09.jpg            	1	1	1	nmn_sand09.jpg       	nonmovNat	5	sand      	31	sand09      	318	not_alive	0	still	0	natural 	1	n	0	1        	f	0.442135599994799	1	79.9187157999986	80.0187085000071	0.0999927000084426
92600	100	29	stimuli/plant2/clover/plant_clover09.jpg         	1	1	1	plant_clover09.jpg   	plant2   	7	clover    	9	clover09    	98	alive    	1	still	0	natural 	1	n	0	0        	 	0.0	0	80.0687198000087	80.1687116000103	0.0999918000015896
92750	100	30	stimuli/animals2/whale/animal_whale10.jpg        	1	1	1	animal_whale10.jpg   	animals2 	1	whale     	39	whale10     	399	alive    	1	moves	1	natural 	1	n	0	0        	 	0.0	0	80.2187352000037	80.3187170000019	0.0999817999982042
92900	100	31	stimuli/nonmovArt/lock/nma_lock05.jpg            	1	1	1	nma_lock05.jpg       	nonmovArt	4	lock      	24	lock05      	244	not_alive	0	still	0	artefact	0	n	0	0        	 	0.0	0	80.3687272000097	80.4687195000006	0.0999922999908449
93050	100	32	stimuli/animals/dolphin/animal_dolphin07.jpg     	1	1	1	animal_dolphin07.jpg 	animals  	0	dolphin   	12	dolphin07   	126	alive    	1	moves	1	natural 	1	n	0	0        	 	0.0	0	80.5187301999976	80.6187262000021	0.0999960000044666
93200	100	33	stimuli/movNat/waves/mn_waves07.jpg              	1	1	1	mn_waves07.jpg       	movNat   	3	waves     	38	waves07     	386	not_alive	0	moves	1	natural 	1	n	0	0        	 	0.0	0	80.6687324000086	80.7687282999977	0.0999958999891533
93350	100	34	stimuli/plant2/moss/plant_moss01.jpg             	1	1	1	plant_moss01.jpg     	plant2   	7	moss      	25	moss01      	250	alive    	1	still	0	natural 	1	n	0	0        	 	0.0	0	80.8187364000041	80.9187357000046	0.0999993000004906
93500	100	35	stimuli/nonmovNat/shell/nmn_shell04.jpg          	1	1	1	nmn_shell04.jpg      	nonmovNat	5	shell     	32	shell04     	323	not_alive	0	still	0	natural 	1	n	0	0        	 	0.0	0	80.9687509000069	81.0687354000111	0.0999845000042114
93650	100	36	stimuli/movArt/helicopter/ma_helicopter07.jpg    	1	1	1	ma_helicopter07.jpg  	movArt   	2	helicopter	19	helicopter07	196	not_alive	0	moves	1	artefact	0	n	0	0        	 	0.0	0	81.1187485000119	81.2187390000036	0.0999904999916907
93800	100	37	stimuli/plant2/moss/plant_moss03.jpg             	1	1	1	plant_moss03.jpg     	plant2   	7	moss      	25	moss03      	252	alive    	1	still	0	natural 	1	n	0	0        	 	0.0	0	81.2687511000113	81.3687466999982	0.0999955999868689
93950	100	38	stimuli/nonmovArt/headphones/nma_headphones10.jpg	1	1	1	nma_headphones10.jpg 	nonmovArt	4	headphones	18	headphones10	189	not_alive	0	still	0	artefact	0	n	0	0        	 	0.0	0	81.4187817000056	81.5187463000038	0.0999645999982022
94100	100	39	stimuli/plant2/moss/plant_moss08.jpg             	1	1	1	plant_moss08.jpg     	plant2   	7	moss      	25	moss08      	257	alive    	1	still	0	natural 	1	n	0	0        	 	0.0	0	81.5687585999985	81.6687520999985	0.0999934999999823
94250	100	40	stimuli/plant/grass/plant_grass06.jpg            	1	1	1	plant_grass06.jpg    	plant    	6	grass     	17	grass06     	175	alive    	1	still	0	natural 	1	n	0	0        	 	0.0	0	81.7187619000033	81.8187559000071	0.0999940000037896
94400	100	41	stimuli/movArt/train/ma_train10.jpg              	1	1	1	ma_train10.jpg       	movArt   	2	train     	34	train10     	349	not_alive	0	moves	1	artefact	0	n	0	0        	 	0.0	0	81.8687824000081	81.9687612999987	0.0999788999906741
94550	100	42	stimuli/nonmovArt/clothespeg/nma_clothespeg09.jpg	1	1	1	nma_clothespeg09.jpg 	nonmovArt	4	clothespeg	8	clothespeg09	88	not_alive	0	still	0	artefact	0	n	0	0        	 	0.0	0	82.0187849000067	82.1187647000042	0.0999797999975272
94700	100	43	stimuli/movNat/fire/mn_fire09.jpg                	1	1	1	mn_fire09.jpg        	movNat   	3	fire      	15	fire09      	158	not_alive	0	moves	1	natural 	1	n	1	0        	 	0.0	0	82.1687734000007	82.2687675000052	0.099994100004551
94850	100	44	stimuli/animals/cat/animal_cat10.jpg             	1	1	1	animal_cat10.jpg     	animals  	0	cat       	6	cat10       	69	alive    	1	moves	1	natural 	1	n	0	0        	 	0.0	0	82.3187763000024	82.4187716000015	0.0999952999991365
95000	100	45	stimuli/movNat/waterfall/mn_waterfall04.jpg      	1	1	1	mn_waterfall04.jpg   	movNat   	3	waterfall 	37	waterfall04 	373	not_alive	0	moves	1	natural 	1	n	0	1        	f	0.409729699997115	1	82.468781500007	82.5687757999985	0.099994299991522
95150	100	46	stimuli/plant/cactus/plant_cactus09.jpg          	1	1	1	plant_cactus09.jpg   	plant    	6	cactus    	4	cactus09    	48	alive    	1	still	0	natural 	1	n	0	0        	 	0.0	0	82.6187860000064	82.718781500007	0.0999955000006594
95300	100	47	stimuli/movNat/fire/mn_fire07.jpg                	1	1	1	mn_fire07.jpg        	movNat   	3	fire      	15	fire07      	156	not_alive	0	moves	1	natural 	1	n	0	0        	 	0.0	0	82.768799700003	82.8687848000118	0.0999851000087801
95450	100	48	stimuli/plant2/lemontree/plant_lemontree08.jpg   	1	1	1	plant_lemontree08.jpg	plant2   	7	lemontree 	22	lemontree08 	227	alive    	1	still	0	natural 	1	n	0	0        	 	0.0	0	82.9187959999981	83.0187882000027	0.0999922000046354
95600	100	49	stimuli/nonmovNat/sand/nmn_sand03.jpg            	1	1	1	nmn_sand03.jpg       	nonmovNat	5	sand      	31	sand03      	312	not_alive	0	still	0	natural 	1	n	0	0        	 	0.0	0	83.0687958000053	83.1687938000104	0.0999980000051437
95750	100	50	stimuli/animals/dog/animal_dog02.jpg             	1	1	1	animal_dog02.jpg     	animals  	0	dog       	11	dog02       	111	alive    	1	moves	1	natural 	1	n	0	0        	 	0.0	0	83.218802000003	83.3187962000084	0.0999942000053124
95900	100	51	stimuli/plant/vine/plant_vine07.jpg              	1	1	1	plant_vine07.jpg     	plant    	6	vine      	36	vine07      	366	alive    	1	still	0	natural 	1	n	0	0        	 	0.0	0	83.3688067000039	83.4688007000077	0.0999940000037896
96050	100	52	stimuli/animals/cat/animal_cat04.jpg             	1	1	1	animal_cat04.jpg     	animals  	0	cat       	6	cat04       	63	alive    	1	moves	1	natural 	1	n	1	0        	 	0.0	0	83.5188316999993	83.6188041999994	0.099972500000149
96200	100	53	stimuli/animals/dolphin/animal_dolphin08.jpg     	1	1	1	animal_dolphin08.jpg 	animals  	0	dolphin   	12	dolphin08   	127	alive    	1	moves	1	natural 	1	n	0	0        	 	0.0	0	83.6688150000118	83.7688085000118	0.0999934999999823
96350	100	54	stimuli/animals/eagle/animal_eagle03.jpg         	1	1	1	animal_eagle03.jpg   	animals  	0	eagle     	13	eagle03     	132	alive    	1	moves	1	natural 	1	n	0	0        	 	0.0	0	83.8188164000021	83.9188120000035	0.0999956000014208
96500	100	55	stimuli/nonmovNat/shell/nmn_shell06.jpg          	1	1	1	nmn_shell06.jpg      	nonmovNat	5	shell     	32	shell06     	325	not_alive	0	still	0	natural 	1	n	0	1        	f	0.541962000002968	1	83.9688200000092	84.0688388999988	0.100018899989664
96650	100	56	stimuli/animals2/tiger/animal_tiger02.jpg        	1	1	1	animal_tiger02.jpg   	animals2 	1	tiger     	33	tiger02     	331	alive    	1	moves	1	natural 	1	n	0	0        	 	0.0	0	84.1188277000037	84.2188220000098	0.0999943000060739
96800	100	57	stimuli/nonmovArt/mug/nma_mug01.jpg              	1	1	1	nma_mug01.jpg        	nonmovArt	4	mug       	26	mug01       	260	not_alive	0	still	0	artefact	0	n	0	0        	 	0.0	0	84.2688287000056	84.3688331000012	0.100004399995669
96950	100	58	stimuli/nonmovNat/crystal/nmn_crystal07.jpg      	1	1	1	nmn_crystal07.jpg    	nonmovNat	5	crystal   	10	crystal07   	106	not_alive	0	still	0	natural 	1	n	0	0        	 	0.0	0	84.418834600001	84.5188409000111	0.100006300010136
97100	100	59	stimuli/animals2/bee/animal_bee01.jpg            	1	1	1	animal_bee01.jpg     	animals2 	1	bee       	0	bee01       	0	alive    	1	moves	1	natural 	1	n	0	0        	 	0.0	0	84.5688366000104	84.6688318000088	0.099995199998375
97250	100	60	stimuli/plant/tree/plant_tree08.jpg              	1	1	1	plant_tree08.jpg     	plant    	6	tree      	35	tree08      	357	alive    	1	still	0	natural 	1	n	1	0        	 	0.0	0	84.7188413000113	84.8188444000116	0.100003100000322
97400	100	61	stimuli/animals/horse/animal_horse07.jpg         	1	1	1	animal_horse07.jpg   	animals  	0	horse     	20	horse07     	206	alive    	1	moves	1	natural 	1	n	0	0        	 	0.0	0	84.8688331000012	84.9688412000105	0.100008100009291
97550	100	62	stimuli/nonmovNat/rock/nmn_rock07.jpg            	1	1	1	nmn_rock07.jpg       	nonmovNat	5	rock      	30	rock07      	306	not_alive	0	still	0	natural 	1	n	0	1        	f	0.391988299990771	1	85.0188511000015	85.118845200006	0.099994100004551
97700	100	63	stimuli/animals/horse/animal_horse10.jpg         	1	1	1	animal_horse10.jpg   	animals  	0	horse     	20	horse10     	209	alive    	1	moves	1	natural 	1	n	0	0        	 	0.0	0	85.1688530000101	85.2688500000077	0.0999969999975292
97850	100	64	stimuli/plant/tree/plant_tree08.jpg              	1	1	1	plant_tree08.jpg     	plant    	6	tree      	35	tree08      	357	alive    	1	still	0	natural 	1	n	0	0        	 	0.0	0	85.3188569000049	85.4188514999987	0.0999945999938063
98000	100	65	stimuli/plant/tree/plant_tree03.jpg              	1	1	1	plant_tree03.jpg     	plant    	6	tree      	35	tree03      	352	alive    	1	still	0	natural 	1	n	0	0        	 	0.0	0	85.4688623000111	85.5688576000102	0.0999952999991365
98150	100	66	stimuli/plant2/palmtree/plant_palmtree04.jpg     	1	1	1	plant_palmtree04.jpg 	plant2   	7	palmtree  	27	palmtree04  	273	alive    	1	still	0	natural 	1	n	0	0        	 	0.0	0	85.6188683000073	85.7188737000106	0.100005400003283
98300	100	67	stimuli/movNat/river/mn_river06.jpg              	1	1	1	mn_river06.jpg       	movNat   	3	river     	29	river06     	295	not_alive	0	moves	1	natural 	1	n	0	0        	 	0.0	0	85.7688692000083	85.868865299999	0.0999960999906762
98450	100	68	stimuli/movNat/hotspring/mn_hotspring08.jpg      	1	1	1	mn_hotspring08.jpg   	movNat   	3	hotspring 	21	hotspring08 	217	not_alive	0	moves	1	natural 	1	n	0	0        	 	0.0	0	85.9188743999985	86.0188665000023	0.0999921000038739
98600	100	69	stimuli/animals2/bee/animal_bee06.jpg            	1	1	1	animal_bee06.jpg     	animals2 	1	bee       	0	bee06       	5	alive    	1	moves	1	natural 	1	n	0	0        	 	0.0	0	86.0688912000042	86.1688921000023	0.100000899998122
98750	100	70	stimuli/movArt/helicopter/ma_helicopter09.jpg    	1	1	1	ma_helicopter09.jpg  	movArt   	2	helicopter	19	helicopter09	198	not_alive	0	moves	1	artefact	0	n	0	0        	 	0.0	0	86.2188989999995	86.3188675999991	0.0999685999995563
98900	100	71	stimuli/plant/cactus/plant_cactus02.jpg          	1	1	1	plant_cactus02.jpg   	plant    	6	cactus    	4	cactus02    	41	alive    	1	still	0	natural 	1	n	0	0        	 	0.0	0	86.3688858000096	86.4688821000018	0.0999962999921991
99050	100	72	stimuli/animals2/pigeon/animal_pigeon02.jpg      	1	1	1	animal_pigeon02.jpg  	animals2 	1	pigeon    	28	pigeon02    	281	alive    	1	moves	1	natural 	1	n	0	0        	 	0.0	0	86.518888800012	86.6188836000074	0.0999947999953292
99200	100	73	stimuli/movArt/boat/ma_boat10.jpg                	1	1	1	ma_boat10.jpg        	movArt   	2	boat      	2	boat10      	29	not_alive	0	moves	1	artefact	0	n	0	0        	 	0.0	0	86.6688931000099	86.7688856000022	0.0999924999923678
99350	100	74	stimuli/movArt/train/ma_train09.jpg              	1	1	1	ma_train09.jpg       	movArt   	2	train     	34	train09     	348	not_alive	0	moves	1	artefact	0	n	0	0        	 	0.0	0	86.8188980999985	86.9188944000052	0.099996300006751
99500	100	75	stimuli/movArt/car/ma_car02.jpg                  	1	1	1	ma_car02.jpg         	movArt   	2	car       	5	car02       	51	not_alive	0	moves	1	artefact	0	n	0	0        	 	0.0	0	86.9689007999987	87.0688951000047	0.0999943000060739
99650	100	76	stimuli/plant/flower/plant_flower02.jpg          	1	1	1	plant_flower02.jpg   	plant    	6	flower    	16	flower02    	161	alive    	1	still	0	natural 	1	n	0	0        	 	0.0	0	87.118905299998	87.2188998000056	0.0999945000075968
99800	100	77	stimuli/nonmovNat/rock/nmn_rock01.jpg            	1	1	1	nmn_rock01.jpg       	nonmovNat	5	rock      	30	rock01      	300	not_alive	0	still	0	natural 	1	n	0	0        	 	0.0	0	87.2689084000012	87.3689041000034	0.0999957000021823
99950	100	78	stimuli/movNat/hotspring/mn_hotspring09.jpg      	1	1	1	mn_hotspring09.jpg   	movNat   	3	hotspring 	21	hotspring09 	218	not_alive	0	moves	1	natural 	1	n	0	0        	 	0.0	0	87.418912100009	87.5189061999991	0.0999940999899991
100100	100	79	stimuli/animals/dog/animal_dog05.jpg             	1	1	1	animal_dog05.jpg     	animals  	0	dog       	11	dog05       	114	alive    	1	moves	1	natural 	1	n	0	0        	 	0.0	0	87.5689176000014	87.668912699999	0.0999950999976136
104350	100	80	stimuli/animals2/whale/animal_whale10.jpg        	1	2	1	animal_whale10.jpg   	animals2 	1	whale     	39	whale10     	399	alive    	1	moves	1	natural 	1	n	0	0        	 	0.0	0	91.8190355000115	91.9190242000041	0.0999886999925366
104500	100	81	stimuli/animals2/whale/animal_whale08.jpg        	1	2	1	animal_whale08.jpg   	animals2 	1	whale     	39	whale08     	397	alive    	1	moves	1	natural 	1	n	0	0        	 	0.0	0	91.9690483000013	92.0690288000042	0.0999805000028573
104650	100	82	stimuli/nonmovNat/crystal/nmn_crystal09.jpg      	1	2	1	nmn_crystal09.jpg    	nonmovNat	5	crystal   	10	crystal09   	108	not_alive	0	still	0	natural 	1	n	0	0        	 	0.0	0	92.1190511000022	92.2190315000044	0.0999804000020958
104800	100	83	stimuli/animals2/pigeon/animal_pigeon05.jpg      	1	2	1	animal_pigeon05.jpg  	animals2 	1	pigeon    	28	pigeon05    	284	alive    	1	moves	1	natural 	1	n	0	0        	 	0.0	0	92.2690417000122	92.3690358000022	0.0999940999899991
104950	100	84	stimuli/plant2/palmtree/plant_palmtree10.jpg     	1	2	1	plant_palmtree10.jpg 	plant2   	7	palmtree  	27	palmtree10  	279	alive    	1	still	0	natural 	1	n	0	0        	 	0.0	0	92.4190451000031	92.5190542000055	0.100009100002353
105100	100	85	stimuli/movArt/boat/ma_boat09.jpg                	1	2	1	ma_boat09.jpg        	movArt   	2	boat      	2	boat09      	28	not_alive	0	moves	1	artefact	0	n	0	0        	 	0.0	0	92.5690500000055	92.6690432000032	0.099993199997698
105250	100	86	stimuli/movNat/hotspring/mn_hotspring08.jpg      	1	2	1	mn_hotspring08.jpg   	movNat   	3	hotspring 	21	hotspring08 	217	not_alive	0	moves	1	natural 	1	n	0	0        	 	0.0	0	92.7190663000074	92.8190485000086	0.09998220000125
105400	100	87	stimuli/animals2/bee/animal_bee10.jpg            	1	2	1	animal_bee10.jpg     	animals2 	1	bee       	0	bee10       	9	alive    	1	moves	1	natural 	1	n	0	0        	 	0.0	0	92.8690579000104	92.9690520000004	0.0999940999899991
105550	100	88	stimuli/nonmovNat/shell/nmn_shell03.jpg          	1	2	1	nmn_shell03.jpg      	nonmovNat	5	shell     	32	shell03     	322	not_alive	0	still	0	natural 	1	n	0	0        	 	0.0	0	93.0190609999991	93.1190552000044	0.0999942000053124
105700	100	89	stimuli/nonmovArt/bench/nma_bench03.jpg          	1	2	1	nma_bench03.jpg      	nonmovArt	4	bench     	1	bench03     	12	not_alive	0	still	0	artefact	0	n	0	0        	 	0.0	0	93.1690682000044	93.269059600003	0.0999913999985438
105850	100	90	stimuli/animals2/lemur/animal_lemur09.jpg        	1	2	1	animal_lemur09.jpg   	animals2 	1	lemur     	23	lemur09     	238	alive    	1	moves	1	natural 	1	n	0	0        	 	0.0	0	93.3190804000042	93.4190627000062	0.0999823000020115
106000	100	91	stimuli/plant/flower/plant_flower01.jpg          	1	2	1	plant_flower01.jpg   	plant    	6	flower    	16	flower01    	160	alive    	1	still	0	natural 	1	n	0	0        	 	0.0	0	93.469073100001	93.5690833999979	0.100010299996939
106150	100	92	stimuli/animals/eagle/animal_eagle05.jpg         	1	2	1	animal_eagle05.jpg   	animals  	0	eagle     	13	eagle05     	134	alive    	1	moves	1	natural 	1	n	0	0        	 	0.0	0	93.6190769000095	93.7190711000003	0.0999941999907605
106300	100	93	stimuli/plant2/lemontree/plant_lemontree04.jpg   	1	2	1	plant_lemontree04.jpg	plant2   	7	lemontree 	22	lemontree04 	223	alive    	1	still	0	natural 	1	n	0	0        	 	0.0	0	93.7690826000035	93.8690754999989	0.0999928999954136
106450	100	94	stimuli/movNat/waterfall/mn_waterfall01.jpg      	1	2	1	mn_waterfall01.jpg   	movNat   	3	waterfall 	37	waterfall01 	370	not_alive	0	moves	1	natural 	1	n	0	0        	 	0.0	0	93.9190858000074	94.019079900012	0.099994100004551
106600	100	95	stimuli/movArt/helicopter/ma_helicopter02.jpg    	1	2	1	ma_helicopter02.jpg  	movArt   	2	helicopter	19	helicopter02	191	not_alive	0	moves	1	artefact	0	n	0	0        	 	0.0	0	94.0690906000091	94.1690854000044	0.0999947999953292
106750	100	96	stimuli/plant2/fern/plant_fern09.jpg             	1	2	1	plant_fern09.jpg     	plant2   	7	fern      	14	fern09      	148	alive    	1	still	0	natural 	1	n	0	0        	 	0.0	0	94.2190955000114	94.3191167000041	0.100021199992625
106900	100	97	stimuli/plant/cactus/plant_cactus03.jpg          	1	2	1	plant_cactus03.jpg   	plant    	6	cactus    	4	cactus03    	42	alive    	1	still	0	natural 	1	n	1	0        	 	0.0	0	94.3690987000009	94.4690908000048	0.0999921000038739
107050	100	98	stimuli/nonmovNat/crystal/nmn_crystal04.jpg      	1	2	1	nmn_crystal04.jpg    	nonmovNat	5	crystal   	10	crystal04   	103	not_alive	0	still	0	natural 	1	n	0	0        	 	0.0	0	94.5191035000025	94.6191088000051	0.100005300002522
107200	100	99	stimuli/nonmovNat/cliff/nmn_cliff10.jpg          	1	2	1	nmn_cliff10.jpg      	nonmovNat	5	cliff     	7	cliff10     	79	not_alive	0	still	0	natural 	1	n	0	1        	f	0.391982700006338	1	94.6691075999988	94.7690994000004	0.0999918000015896
107350	100	100	stimuli/nonmovArt/mug/nma_mug04.jpg              	1	2	1	nma_mug04.jpg        	nonmovArt	4	mug       	26	mug04       	263	not_alive	0	still	0	artefact	0	n	1	0        	 	0.0	0	94.8191091000044	94.9191212000005	0.100012099996093
107500	100	101	stimuli/nonmovArt/lock/nma_lock04.jpg            	1	2	1	nma_lock04.jpg       	nonmovArt	4	lock      	24	lock04      	243	not_alive	0	still	0	artefact	0	n	0	0        	 	0.0	0	94.9691136000038	95.0690984000103	0.0999848000064958
107650	100	102	stimuli/plant/vine/plant_vine06.jpg              	1	2	1	plant_vine06.jpg     	plant    	6	vine      	36	vine06      	365	alive    	1	still	0	natural 	1	n	0	0        	 	0.0	0	95.1191161000024	95.2191107000108	0.0999946000083582
107800	100	103	stimuli/nonmovNat/sand/nmn_sand02.jpg            	1	2	1	nmn_sand02.jpg       	nonmovNat	5	sand      	31	sand02      	311	not_alive	0	still	0	natural 	1	n	0	1        	f	0.542019300002721	1	95.2691229000047	95.3691286000103	0.100005700005568
107950	100	104	stimuli/animals2/tiger/animal_tiger01.jpg        	1	2	1	animal_tiger01.jpg   	animals2 	1	tiger     	33	tiger01     	330	alive    	1	moves	1	natural 	1	n	0	0        	 	0.0	0	95.4191247999988	95.5191225000017	0.0999977000028594
108100	100	105	stimuli/movArt/car/ma_car02.jpg                  	1	2	1	ma_car02.jpg         	movArt   	2	car       	5	car02       	51	not_alive	0	moves	1	artefact	0	n	0	0        	 	0.0	0	95.5691293999989	95.6691333000053	0.100003900006413
108250	100	106	stimuli/movArt/train/ma_train05.jpg              	1	2	1	ma_train05.jpg       	movArt   	2	train     	34	train05     	344	not_alive	0	moves	1	artefact	0	n	0	0        	 	0.0	0	95.7191315000091	95.8191384000092	0.100006900000153
108400	100	107	stimuli/nonmovNat/cliff/nmn_cliff06.jpg          	1	2	1	nmn_cliff06.jpg      	nonmovNat	5	cliff     	7	cliff06     	75	not_alive	0	still	0	natural 	1	n	0	0        	 	0.0	0	95.8691136999987	95.9691319999984	0.100018299999647
108550	100	108	stimuli/animals2/lemur/animal_lemur10.jpg        	1	2	1	animal_lemur10.jpg   	animals2 	1	lemur     	23	lemur10     	239	alive    	1	moves	1	natural 	1	n	0	0        	 	0.0	0	96.0191419000039	96.1191496000101	0.100007700006245
108700	100	109	stimuli/plant2/clover/plant_clover06.jpg         	1	2	1	plant_clover06.jpg   	plant2   	7	clover    	9	clover06    	95	alive    	1	still	0	natural 	1	n	0	0        	 	0.0	0	96.1691775000072	96.2691426000092	0.0999651000020094
108850	100	110	stimuli/animals/eagle/animal_eagle09.jpg         	1	2	1	animal_eagle09.jpg   	animals  	0	eagle     	13	eagle09     	138	alive    	1	moves	1	natural 	1	n	0	0        	 	0.0	0	96.3191495000064	96.4191427000042	0.099993199997698
109000	100	111	stimuli/movArt/car/ma_car10.jpg                  	1	2	1	ma_car10.jpg         	movArt   	2	car       	5	car10       	59	not_alive	0	moves	1	artefact	0	n	0	0        	 	0.0	0	96.4691537000035	96.569146400012	0.0999927000084426
109150	100	112	stimuli/plant/grass/plant_grass05.jpg            	1	2	1	plant_grass05.jpg    	plant    	6	grass     	17	grass05     	174	alive    	1	still	0	natural 	1	n	0	0        	 	0.0	0	96.6191599000012	96.7191515000013	0.0999916000000667
109300	100	113	stimuli/movNat/fire/mn_fire07.jpg                	1	2	1	mn_fire07.jpg        	movNat   	3	fire      	15	fire07      	156	not_alive	0	moves	1	natural 	1	n	0	0        	 	0.0	0	96.7691782000038	96.8691585000052	0.0999803000013344
109450	100	114	stimuli/nonmovArt/clothespeg/nma_clothespeg01.jpg	1	2	1	nma_clothespeg01.jpg 	nonmovArt	4	clothespeg	8	clothespeg01	80	not_alive	0	still	0	artefact	0	n	0	0        	 	0.0	0	96.9191928000073	97.0191589000024	0.099966099995072
109600	100	115	stimuli/nonmovArt/bench/nma_bench03.jpg          	1	2	1	nma_bench03.jpg      	nonmovArt	4	bench     	1	bench03     	12	not_alive	0	still	0	artefact	0	n	0	0        	 	0.0	0	97.0691680000018	97.1691777000087	0.100009700006922
109750	100	116	stimuli/movNat/waves/mn_waves10.jpg              	1	2	1	mn_waves10.jpg       	movNat   	3	waves     	38	waves10     	389	not_alive	0	moves	1	natural 	1	n	0	0        	 	0.0	0	97.2191852000105	97.3191661000019	0.0999808999913512
109900	100	117	stimuli/nonmovNat/cliff/nmn_cliff04.jpg          	1	2	1	nmn_cliff04.jpg      	nonmovNat	5	cliff     	7	cliff04     	73	not_alive	0	still	0	natural 	1	n	0	0        	 	0.0	0	97.3691773000028	97.4691727000027	0.0999953999998979
110050	100	118	stimuli/plant/flower/plant_flower09.jpg          	1	2	1	plant_flower09.jpg   	plant    	6	flower    	16	flower09    	168	alive    	1	still	0	natural 	1	n	0	0        	 	0.0	0	97.5191935000039	97.6191865000001	0.0999929999961751
110200	100	119	stimuli/nonmovArt/bench/nma_bench08.jpg          	1	2	1	nma_bench08.jpg      	nonmovArt	4	bench     	1	bench08     	17	not_alive	0	still	0	artefact	0	n	0	0        	 	0.0	0	97.6692006000085	97.7691782000038	0.0999775999953272
110350	100	120	stimuli/plant/cactus/plant_cactus08.jpg          	1	2	1	plant_cactus08.jpg   	plant    	6	cactus    	4	cactus08    	47	alive    	1	still	0	natural 	1	n	0	0        	 	0.0	0	97.81919010001	97.9191857000114	0.0999956000014208
110500	100	121	stimuli/plant/cactus/plant_cactus05.jpg          	1	2	1	plant_cactus05.jpg   	plant    	6	cactus    	4	cactus05    	44	alive    	1	still	0	natural 	1	n	0	0        	 	0.0	0	97.9691934000002	98.0691871000017	0.0999937000015052
110650	100	122	stimuli/movNat/hotspring/mn_hotspring05.jpg      	1	2	1	mn_hotspring05.jpg   	movNat   	3	hotspring 	21	hotspring05 	214	not_alive	0	moves	1	natural 	1	n	0	0        	 	0.0	0	98.1191983000026	98.2191898000019	0.0999914999993052
110800	100	123	stimuli/plant2/moss/plant_moss04.jpg             	1	2	1	plant_moss04.jpg     	plant2   	7	moss      	25	moss04      	253	alive    	1	still	0	natural 	1	n	0	0        	 	0.0	0	98.2692003999982	98.369197100008	0.0999967000097968
110950	100	124	stimuli/animals/dolphin/animal_dolphin04.jpg     	1	2	1	animal_dolphin04.jpg 	animals  	0	dolphin   	12	dolphin04   	123	alive    	1	moves	1	natural 	1	n	0	0        	 	0.0	0	98.4192046000098	98.5191986999998	0.0999940999899991
111100	100	125	stimuli/movArt/train/ma_train04.jpg              	1	2	1	ma_train04.jpg       	movArt   	2	train     	34	train04     	343	not_alive	0	moves	1	artefact	0	n	0	0        	 	0.0	0	98.5692089000077	98.6692019000039	0.0999929999961751
111250	100	126	stimuli/plant/flower/plant_flower09.jpg          	1	2	1	plant_flower09.jpg   	plant    	6	flower    	16	flower09    	168	alive    	1	still	0	natural 	1	n	0	0        	 	0.0	0	98.7192121000116	98.8192084000039	0.0999962999921991
111400	100	127	stimuli/nonmovNat/shell/nmn_shell05.jpg          	1	2	1	nmn_shell05.jpg      	nonmovNat	5	shell     	32	shell05     	324	not_alive	0	still	0	natural 	1	n	0	0        	 	0.0	0	98.8692163000087	98.9692156000092	0.0999993000004906
111550	100	128	stimuli/nonmovArt/clothespeg/nma_clothespeg03.jpg	1	2	1	nma_clothespeg03.jpg 	nonmovArt	4	clothespeg	8	clothespeg03	82	not_alive	0	still	0	artefact	0	n	0	0        	 	0.0	0	99.0192415000056	99.1192177000048	0.0999761999992188
111700	100	129	stimuli/movArt/helicopter/ma_helicopter03.jpg    	1	2	1	ma_helicopter03.jpg  	movArt   	2	helicopter	19	helicopter03	192	not_alive	0	moves	1	artefact	0	n	0	0        	 	0.0	0	99.1692255000089	99.2692171000089	0.0999916000000667
111850	100	130	stimuli/nonmovNat/sand/nmn_sand07.jpg            	1	2	1	nmn_sand07.jpg       	nonmovNat	5	sand      	31	sand07      	316	not_alive	0	still	0	natural 	1	n	0	0        	 	0.0	0	99.3192277000053	99.4192219000106	0.0999942000053124
112000	100	131	stimuli/plant2/palmtree/plant_palmtree04.jpg     	1	2	1	plant_palmtree04.jpg 	plant2   	7	palmtree  	27	palmtree04  	273	alive    	1	still	0	natural 	1	n	0	0        	 	0.0	0	99.4692331999977	99.5692268999992	0.0999937000015052
112150	100	132	stimuli/nonmovNat/sand/nmn_sand08.jpg            	1	2	1	nmn_sand08.jpg       	nonmovNat	5	sand      	31	sand08      	317	not_alive	0	still	0	natural 	1	n	0	0        	 	0.0	0	99.6192442000029	99.7192297000001	0.099985499997274
112300	100	133	stimuli/animals2/tiger/animal_tiger04.jpg        	1	2	1	animal_tiger04.jpg   	animals2 	1	tiger     	33	tiger04     	333	alive    	1	moves	1	natural 	1	n	0	0        	 	0.0	0	99.7692413000041	99.8692369000055	0.0999956000014208
112450	100	134	stimuli/movNat/fire/mn_fire03.jpg                	1	2	1	mn_fire03.jpg        	movNat   	3	fire      	15	fire03      	152	not_alive	0	moves	1	natural 	1	n	0	0        	 	0.0	0	99.9192445000081	100.019249500008	0.100005000000237
112600	100	135	stimuli/movNat/waves/mn_waves04.jpg              	1	2	1	mn_waves04.jpg       	movNat   	3	waves     	38	waves04     	383	not_alive	0	moves	1	natural 	1	n	0	0        	 	0.0	0	100.069250600005	100.16924290001	0.0999923000053968
112750	100	136	stimuli/plant2/fern/plant_fern01.jpg             	1	2	1	plant_fern01.jpg     	plant2   	7	fern      	14	fern01      	140	alive    	1	still	0	natural 	1	n	0	0        	 	0.0	0	100.219253500007	100.319245200008	0.0999917000008281
112900	100	137	stimuli/animals2/lemur/animal_lemur07.jpg        	1	2	1	animal_lemur07.jpg   	animals2 	1	lemur     	23	lemur07     	236	alive    	1	moves	1	natural 	1	n	0	0        	 	0.0	0	100.36925660001	100.469249300004	0.0999926999938907
113050	100	138	stimuli/animals/eagle/animal_eagle01.jpg         	1	2	1	animal_eagle01.jpg   	animals  	0	eagle     	13	eagle01     	130	alive    	1	moves	1	natural 	1	n	0	0        	 	0.0	0	100.519265700001	100.61928340001	0.10001770000963
113200	100	139	stimuli/animals/eagle/animal_eagle10.jpg         	1	2	1	animal_eagle10.jpg   	animals  	0	eagle     	13	eagle10     	139	alive    	1	moves	1	natural 	1	n	1	0        	 	0.0	0	100.669265100005	100.769268400007	0.100003300001845
113350	100	140	stimuli/animals2/bee/animal_bee03.jpg            	1	2	1	animal_bee03.jpg     	animals2 	1	bee       	0	bee03       	2	alive    	1	moves	1	natural 	1	n	0	0        	 	0.0	0	100.819269	100.919261400006	0.0999924000061583
113500	100	141	stimuli/movNat/river/mn_river01.jpg              	1	2	1	mn_river01.jpg       	movNat   	3	river     	29	river01     	290	not_alive	0	moves	1	natural 	1	n	0	1        	f	0.391990899996017	1	100.969272900009	101.069265400001	0.0999924999923678
113650	100	142	stimuli/plant/vine/plant_vine10.jpg              	1	2	1	plant_vine10.jpg     	plant    	6	vine      	36	vine10      	369	alive    	1	still	0	natural 	1	n	0	0        	 	0.0	0	101.1192782	101.21929410001	0.100015900010476
113800	100	143	stimuli/movNat/river/mn_river02.jpg              	1	2	1	mn_river02.jpg       	movNat   	3	river     	29	river02     	291	not_alive	0	moves	1	natural 	1	n	0	0        	 	0.0	0	101.269283200003	101.369295100012	0.100011900009122
113950	100	144	stimuli/movArt/boat/ma_boat04.jpg                	1	2	1	ma_boat04.jpg        	movArt   	2	boat      	2	boat04      	23	not_alive	0	moves	1	artefact	0	n	1	0        	 	0.0	0	101.419283800002	101.519280100008	0.099996300006751
114100	100	145	stimuli/movNat/waterfall/mn_waterfall04.jpg      	1	2	1	mn_waterfall04.jpg   	movNat   	3	waterfall 	37	waterfall04 	373	not_alive	0	moves	1	natural 	1	n	0	0        	 	0.0	0	101.569287400009	101.669281399998	0.0999939999892376
114250	100	146	stimuli/nonmovNat/cliff/nmn_cliff03.jpg          	1	2	1	nmn_cliff03.jpg      	nonmovNat	5	cliff     	7	cliff03     	72	not_alive	0	still	0	natural 	1	n	0	1        	f	0.391985399997793	1	101.719293100003	101.819287300008	0.0999942000053124
114400	100	147	stimuli/nonmovArt/mug/nma_mug07.jpg              	1	2	1	nma_mug07.jpg        	nonmovArt	4	mug       	26	mug07       	266	not_alive	0	still	0	artefact	0	n	0	0        	 	0.0	0	101.86929670001	101.969297100004	0.100000399994315
114550	100	148	stimuli/plant2/palmtree/plant_palmtree08.jpg     	1	2	1	plant_palmtree08.jpg 	plant2   	7	palmtree  	27	palmtree08  	277	alive    	1	still	0	natural 	1	n	0	0        	 	0.0	0	102.019302500004	102.119302200008	0.0999997000035364
114700	100	149	stimuli/animals/cat/animal_cat04.jpg             	1	2	1	animal_cat04.jpg     	animals  	0	cat       	6	cat04       	63	alive    	1	moves	1	natural 	1	n	0	0        	 	0.0	0	102.169305500007	102.269298900006	0.0999933999992209
114850	100	150	stimuli/plant/tree/plant_tree04.jpg              	1	2	1	plant_tree04.jpg     	plant    	6	tree      	35	tree04      	353	alive    	1	still	0	natural 	1	n	0	0        	 	0.0	0	102.319306800011	102.419302200011	0.0999953999998979
115000	100	151	stimuli/movArt/bus/ma_bus09.jpg                  	1	2	1	ma_bus09.jpg         	movArt   	2	bus       	3	bus09       	38	not_alive	0	moves	1	artefact	0	n	0	0        	 	0.0	0	102.469339800009	102.569305099998	0.0999652999889804
115150	100	152	stimuli/nonmovNat/crystal/nmn_crystal01.jpg      	1	2	1	nmn_crystal01.jpg    	nonmovNat	5	crystal   	10	crystal01   	100	not_alive	0	still	0	natural 	1	n	0	0        	 	0.0	0	102.619317900011	102.719326100007	0.1000081999955
115300	100	153	stimuli/movNat/waterfall/mn_waterfall01.jpg      	1	2	1	mn_waterfall01.jpg   	movNat   	3	waterfall 	37	waterfall01 	370	not_alive	0	moves	1	natural 	1	n	0	0        	 	0.0	0	102.769320700012	102.869311600007	0.0999908999947365
115450	100	154	stimuli/animals2/whale/animal_whale04.jpg        	1	2	1	animal_whale04.jpg   	animals2 	1	whale     	39	whale04     	393	alive    	1	moves	1	natural 	1	n	0	0        	 	0.0	0	102.919325800001	103.019320600011	0.0999948000098812
115600	100	155	stimuli/movNat/river/mn_river05.jpg              	1	2	1	mn_river05.jpg       	movNat   	3	river     	29	river05     	294	not_alive	0	moves	1	natural 	1	n	0	0        	 	0.0	0	103.0693436	103.169324400005	0.0999808000051416
115750	100	156	stimuli/nonmovArt/lock/nma_lock07.jpg            	1	2	1	nma_lock07.jpg       	nonmovArt	4	lock      	24	lock07      	246	not_alive	0	still	0	artefact	0	n	0	0        	 	0.0	0	103.2193558	103.319326299999	0.0999704999994719
115900	100	157	stimuli/movArt/bus/ma_bus07.jpg                  	1	2	1	ma_bus07.jpg         	movArt   	2	bus       	3	bus07       	36	not_alive	0	moves	1	artefact	0	n	0	0        	 	0.0	0	103.369338000004	103.469335800008	0.0999978000036208
116050	100	158	stimuli/nonmovNat/shell/nmn_shell07.jpg          	1	2	1	nmn_shell07.jpg      	nonmovNat	5	shell     	32	shell07     	326	not_alive	0	still	0	natural 	1	n	0	0        	 	0.0	0	103.519341700012	103.6193356	0.0999938999884762
116200	100	159	stimuli/movNat/waterfall/mn_waterfall08.jpg      	1	2	1	mn_waterfall08.jpg   	movNat   	3	waterfall 	37	waterfall08 	377	not_alive	0	moves	1	natural 	1	n	0	0        	 	0.0	0	103.669344000009	103.76933960001	0.0999956000014208
123450	100	160	stimuli/animals/horse/animal_horse02.jpg         	1	3	1	animal_horse02.jpg   	animals  	0	horse     	20	horse02     	201	alive    	1	moves	1	natural 	1	n	0	0        	 	0.0	0	110.919540200004	111.019531500002	0.0999912999977823
123600	100	161	stimuli/nonmovArt/mug/nma_mug07.jpg              	1	3	1	nma_mug07.jpg        	nonmovArt	4	mug       	26	mug07       	266	not_alive	0	still	0	artefact	0	n	0	0        	 	0.0	0	111.069540900004	111.1695358	0.0999948999960907
123750	100	162	stimuli/plant2/fern/plant_fern04.jpg             	1	3	1	plant_fern04.jpg     	plant2   	7	fern      	14	fern04      	143	alive    	1	still	0	natural 	1	n	0	0        	 	0.0	0	111.21954630001	111.31953980001	0.0999934999999823
123900	100	163	stimuli/nonmovNat/cliff/nmn_cliff05.jpg          	1	3	1	nmn_cliff05.jpg      	nonmovNat	5	cliff     	7	cliff05     	74	not_alive	0	still	0	natural 	1	n	0	0        	 	0.0	0	111.369549399998	111.469543800005	0.0999944000068354
124050	100	164	stimuli/plant2/clover/plant_clover05.jpg         	1	3	1	plant_clover05.jpg   	plant2   	7	clover    	9	clover05    	94	alive    	1	still	0	natural 	1	n	0	0        	 	0.0	0	111.519552600002	111.619573600008	0.100021000005654
124200	100	165	stimuli/nonmovNat/crystal/nmn_crystal10.jpg      	1	3	1	nmn_crystal10.jpg    	nonmovNat	5	crystal   	10	crystal10   	109	not_alive	0	still	0	natural 	1	n	0	0        	 	0.0	0	111.669558900001	111.769551900012	0.099993000010727
124350	100	166	stimuli/animals/cat/animal_cat05.jpg             	1	3	1	animal_cat05.jpg     	animals  	0	cat       	6	cat05       	64	alive    	1	moves	1	natural 	1	n	0	0        	 	0.0	0	111.819558700008	111.919553900007	0.099995199998375
124500	100	167	stimuli/movArt/boat/ma_boat08.jpg                	1	3	1	ma_boat08.jpg        	movArt   	2	boat      	2	boat08      	27	not_alive	0	moves	1	artefact	0	n	0	0        	 	0.0	0	111.969564500003	112.069558700008	0.0999942000053124
124650	100	168	stimuli/nonmovNat/crystal/nmn_crystal04.jpg      	1	3	1	nmn_crystal04.jpg    	nonmovNat	5	crystal   	10	crystal04   	103	not_alive	0	still	0	natural 	1	n	0	0        	 	0.0	0	112.119566400012	112.219576400006	0.100009999994654
124800	100	169	stimuli/plant2/palmtree/plant_palmtree06.jpg     	1	3	1	plant_palmtree06.jpg 	plant2   	7	palmtree  	27	palmtree06  	275	alive    	1	still	0	natural 	1	n	0	0        	 	0.0	0	112.269571500001	112.369593299998	0.100021799997194
124950	100	170	stimuli/plant2/clover/plant_clover05.jpg         	1	3	1	plant_clover05.jpg   	plant2   	7	clover    	9	clover05    	94	alive    	1	still	0	natural 	1	n	0	0        	 	0.0	0	112.419577200009	112.519571700002	0.0999944999930449
125100	100	171	stimuli/nonmovArt/mug/nma_mug06.jpg              	1	3	1	nma_mug06.jpg        	nonmovArt	4	mug       	26	mug06       	265	not_alive	0	still	0	artefact	0	n	0	0        	 	0.0	0	112.569579000003	112.66957540001	0.0999964000075124
125250	100	172	stimuli/plant/flower/plant_flower08.jpg          	1	3	1	plant_flower08.jpg   	plant    	6	flower    	16	flower08    	167	alive    	1	still	0	natural 	1	n	0	0        	 	0.0	0	112.719583800004	112.8195768	0.0999929999961751
125400	100	173	stimuli/animals2/lemur/animal_lemur01.jpg        	1	3	1	animal_lemur01.jpg   	animals2 	1	lemur     	23	lemur01     	230	alive    	1	moves	1	natural 	1	n	0	0        	 	0.0	0	112.869587500012	112.969590599998	0.10000309998577
125550	100	174	stimuli/plant2/lemontree/plant_lemontree05.jpg   	1	3	1	plant_lemontree05.jpg	plant2   	7	lemontree 	22	lemontree05 	224	alive    	1	still	0	natural 	1	n	0	0        	 	0.0	0	113.019592600001	113.1195993	0.10000669999863
125700	100	175	stimuli/nonmovArt/bench/nma_bench09.jpg          	1	3	1	nma_bench09.jpg      	nonmovArt	4	bench     	1	bench09     	18	not_alive	0	still	0	artefact	0	n	0	0        	 	0.0	0	113.169594799998	113.2695905	0.0999957000021823
125850	100	176	stimuli/animals/dolphin/animal_dolphin10.jpg     	1	3	1	animal_dolphin10.jpg 	animals  	0	dolphin   	12	dolphin10   	129	alive    	1	moves	1	natural 	1	n	0	0        	 	0.0	0	113.319598600006	113.419601200003	0.100002599996515
126000	100	177	stimuli/animals2/pigeon/animal_pigeon09.jpg      	1	3	1	animal_pigeon09.jpg  	animals2 	1	pigeon    	28	pigeon09    	288	alive    	1	moves	1	natural 	1	n	0	0        	 	0.0	0	113.469623600002	113.569598500006	0.0999749000038719
126150	100	178	stimuli/animals2/tiger/animal_tiger03.jpg        	1	3	1	animal_tiger03.jpg   	animals2 	1	tiger     	33	tiger03     	332	alive    	1	moves	1	natural 	1	n	0	0        	 	0.0	0	113.619607900007	113.719604400001	0.099996499993722
126300	100	179	stimuli/animals2/whale/animal_whale08.jpg        	1	3	1	animal_whale08.jpg   	animals2 	1	whale     	39	whale08     	397	alive    	1	moves	1	natural 	1	n	0	0        	 	0.0	0	113.769610100004	113.869637100011	0.100027000007685
126450	100	180	stimuli/plant/tree/plant_tree02.jpg              	1	3	1	plant_tree02.jpg     	plant    	6	tree      	35	tree02      	351	alive    	1	still	0	natural 	1	n	0	0        	 	0.0	0	113.919616400002	114.019610200005	0.0999938000022666
126600	100	181	stimuli/plant2/moss/plant_moss08.jpg             	1	3	1	plant_moss08.jpg     	plant2   	7	moss      	25	moss08      	257	alive    	1	still	0	natural 	1	n	0	0        	 	0.0	0	114.069617900008	114.169613400009	0.0999955000006594
126750	100	182	stimuli/plant/grass/plant_grass01.jpg            	1	3	1	plant_grass01.jpg    	plant    	6	grass     	17	grass01     	170	alive    	1	still	0	natural 	1	n	0	0        	 	0.0	0	114.219623099998	114.319618900001	0.0999958000029437
126900	100	183	stimuli/animals/horse/animal_horse02.jpg         	1	3	1	animal_horse02.jpg   	animals  	0	horse     	20	horse02     	201	alive    	1	moves	1	natural 	1	n	0	0        	 	0.0	0	114.369628100001	114.469626300008	0.0999982000066666
127050	100	184	stimuli/plant/flower/plant_flower09.jpg          	1	3	1	plant_flower09.jpg   	plant    	6	flower    	16	flower09    	168	alive    	1	still	0	natural 	1	n	0	0        	 	0.0	0	114.5196345	114.619642300007	0.100007800007006
127200	100	185	stimuli/plant/vine/plant_vine07.jpg              	1	3	1	plant_vine07.jpg     	plant    	6	vine      	36	vine07      	366	alive    	1	still	0	natural 	1	n	0	0        	 	0.0	0	114.669634800011	114.769642400002	0.100007599990931
127350	100	186	stimuli/plant/cactus/plant_cactus02.jpg          	1	3	1	plant_cactus02.jpg   	plant    	6	cactus    	4	cactus02    	41	alive    	1	still	0	natural 	1	n	0	0        	 	0.0	0	114.81964110001	114.91963270001	0.0999916000000667
127500	100	187	stimuli/movNat/waves/mn_waves03.jpg              	1	3	1	mn_waves03.jpg       	movNat   	3	waves     	38	waves03     	382	not_alive	0	moves	1	natural 	1	n	0	0        	 	0.0	0	114.969659800001	115.069640100002	0.0999803000013344
127650	100	188	stimuli/plant/grass/plant_grass03.jpg            	1	3	1	plant_grass03.jpg    	plant    	6	grass     	17	grass03     	172	alive    	1	still	0	natural 	1	n	0	0        	 	0.0	0	115.119647200001	115.219643100005	0.0999959000037052
127800	100	189	stimuli/movArt/bus/ma_bus05.jpg                  	1	3	1	ma_bus05.jpg         	movArt   	2	bus       	3	bus05       	34	not_alive	0	moves	1	artefact	0	n	0	0        	 	0.0	0	115.269651499999	115.369647600004	0.0999961000052281
127950	100	190	stimuli/movNat/hotspring/mn_hotspring04.jpg      	1	3	1	mn_hotspring04.jpg   	movNat   	3	hotspring 	21	hotspring04 	213	not_alive	0	moves	1	natural 	1	n	0	0        	 	0.0	0	115.419654700003	115.519650600007	0.0999959000037052
128100	100	191	stimuli/plant2/fern/plant_fern01.jpg             	1	3	1	plant_fern01.jpg     	plant2   	7	fern      	14	fern01      	140	alive    	1	still	0	natural 	1	n	0	0        	 	0.0	0	115.569676600004	115.6696563	0.0999796999967657
128250	100	192	stimuli/animals2/whale/animal_whale03.jpg        	1	3	1	animal_whale03.jpg   	animals2 	1	whale     	39	whale03     	392	alive    	1	moves	1	natural 	1	n	0	0        	 	0.0	0	115.719696400003	115.819658000008	0.0999616000044625
128400	100	193	stimuli/movArt/helicopter/ma_helicopter07.jpg    	1	3	1	ma_helicopter07.jpg  	movArt   	2	helicopter	19	helicopter07	196	not_alive	0	moves	1	artefact	0	n	0	0        	 	0.0	0	115.869667700012	115.969662100004	0.0999943999922834
128550	100	194	stimuli/movArt/train/ma_train10.jpg              	1	3	1	ma_train10.jpg       	movArt   	2	train     	34	train10     	349	not_alive	0	moves	1	artefact	0	n	0	0        	 	0.0	0	116.019670900001	116.119668300002	0.099997400000575
128700	100	195	stimuli/nonmovNat/cliff/nmn_cliff05.jpg          	1	3	1	nmn_cliff05.jpg      	nonmovNat	5	cliff     	7	cliff05     	74	not_alive	0	still	0	natural 	1	n	0	0        	 	0.0	0	116.169678400009	116.269671300004	0.0999928999954136
128850	100	196	stimuli/animals/dog/animal_dog03.jpg             	1	3	1	animal_dog03.jpg     	animals  	0	dog       	11	dog03       	112	alive    	1	moves	1	natural 	1	n	0	0        	 	0.0	0	116.319695700004	116.419672100004	0.0999764000007417
129000	100	197	stimuli/nonmovNat/rock/nmn_rock04.jpg            	1	3	1	nmn_rock04.jpg       	nonmovNat	5	rock      	30	rock04      	303	not_alive	0	still	0	natural 	1	n	0	0        	 	0.0	0	116.469701300011	116.569679799999	0.0999784999876283
129150	100	198	stimuli/movArt/helicopter/ma_helicopter01.jpg    	1	3	1	ma_helicopter01.jpg  	movArt   	2	helicopter	19	helicopter01	190	not_alive	0	moves	1	artefact	0	n	0	0        	 	0.0	0	116.619685199999	116.71969350001	0.100008300010813
129300	100	199	stimuli/plant/vine/plant_vine01.jpg              	1	3	1	plant_vine01.jpg     	plant    	6	vine      	36	vine01      	360	alive    	1	still	0	natural 	1	n	0	0        	 	0.0	0	116.769693200011	116.869688799998	0.0999955999868689
129450	100	200	stimuli/nonmovArt/clothespeg/nma_clothespeg06.jpg	1	3	1	nma_clothespeg06.jpg 	nonmovArt	4	clothespeg	8	clothespeg06	85	not_alive	0	still	0	artefact	0	n	0	0        	 	0.0	0	116.919696800003	117.019693900002	0.0999970999982906
129600	100	201	stimuli/movNat/hotspring/mn_hotspring01.jpg      	1	3	1	mn_hotspring01.jpg   	movNat   	3	hotspring 	21	hotspring01 	210	not_alive	0	moves	1	natural 	1	n	0	0        	 	0.0	0	117.069704000009	117.169692800002	0.099988799993298
129750	100	202	stimuli/plant2/moss/plant_moss05.jpg             	1	3	1	plant_moss05.jpg     	plant2   	7	moss      	25	moss05      	254	alive    	1	still	0	natural 	1	n	0	0        	 	0.0	0	117.21972220001	117.319697900006	0.0999756999954116
129900	100	203	stimuli/animals/dog/animal_dog07.jpg             	1	3	1	animal_dog07.jpg     	animals  	0	dog       	11	dog07       	116	alive    	1	moves	1	natural 	1	n	0	0        	 	0.0	0	117.369706500001	117.469704400006	0.0999979000043822
130050	100	204	stimuli/animals/cat/animal_cat06.jpg             	1	3	1	animal_cat06.jpg     	animals  	0	cat       	6	cat06       	65	alive    	1	moves	1	natural 	1	n	0	0        	 	0.0	0	117.519715700008	117.619707500009	0.0999918000015896
130200	100	205	stimuli/movNat/fire/mn_fire02.jpg                	1	3	1	mn_fire02.jpg        	movNat   	3	fire      	15	fire02      	151	not_alive	0	moves	1	natural 	1	n	0	0        	 	0.0	0	117.669716100005	117.769710500012	0.0999944000068354
130350	100	206	stimuli/animals2/lemur/animal_lemur01.jpg        	1	3	1	animal_lemur01.jpg   	animals2 	1	lemur     	23	lemur01     	230	alive    	1	moves	1	natural 	1	n	0	0        	 	0.0	0	117.819721500011	117.919715299999	0.0999937999877147
130500	100	207	stimuli/nonmovArt/lock/nma_lock05.jpg            	1	3	1	nma_lock05.jpg       	nonmovArt	4	lock      	24	lock05      	244	not_alive	0	still	0	artefact	0	n	0	0        	 	0.0	0	117.969723400005	118.069717000006	0.0999936000007438
130650	100	208	stimuli/nonmovArt/bench/nma_bench06.jpg          	1	3	1	nma_bench06.jpg      	nonmovArt	4	bench     	1	bench06     	15	not_alive	0	still	0	artefact	0	n	1	0        	 	0.0	0	118.119727000012	118.219727000003	0.0999999999912688
130800	100	209	stimuli/plant/grass/plant_grass09.jpg            	1	3	1	plant_grass09.jpg    	plant    	6	grass     	17	grass09     	178	alive    	1	still	0	natural 	1	n	0	0        	 	0.0	0	118.269732100001	118.369724100005	0.0999920000031125
130950	100	210	stimuli/movNat/fire/mn_fire09.jpg                	1	3	1	mn_fire09.jpg        	movNat   	3	fire      	15	fire09      	158	not_alive	0	moves	1	natural 	1	n	0	1        	f	0.391987799986964	1	118.419731900009	118.51974280001	0.100010900001507
131100	100	211	stimuli/movNat/waves/mn_waves01.jpg              	1	3	1	mn_waves01.jpg       	movNat   	3	waves     	38	waves01     	380	not_alive	0	moves	1	natural 	1	n	0	0        	 	0.0	0	118.56974050001	118.669766400009	0.100025899999309
131250	100	212	stimuli/nonmovNat/rock/nmn_rock01.jpg            	1	3	1	nmn_rock01.jpg       	nonmovNat	5	rock      	30	rock01      	300	not_alive	0	still	0	natural 	1	n	0	0        	 	0.0	0	118.719741100009	118.819737700003	0.0999965999944834
131400	100	213	stimuli/plant2/lemontree/plant_lemontree10.jpg   	1	3	1	plant_lemontree10.jpg	plant2   	7	lemontree 	22	lemontree10 	229	alive    	1	still	0	natural 	1	n	0	0        	 	0.0	0	118.869749800011	118.969741500012	0.0999917000008281
131550	100	214	stimuli/animals/dolphin/animal_dolphin04.jpg     	1	3	1	animal_dolphin04.jpg 	animals  	0	dolphin   	12	dolphin04   	123	alive    	1	moves	1	natural 	1	n	0	0        	 	0.0	0	119.019755000001	119.119745700009	0.0999907000077656
131700	100	215	stimuli/nonmovArt/headphones/nma_headphones04.jpg	1	3	1	nma_headphones04.jpg 	nonmovArt	4	headphones	18	headphones04	183	not_alive	0	still	0	artefact	0	n	0	0        	 	0.0	0	119.169753200011	119.269749600004	0.0999963999929605
131850	100	216	stimuli/plant2/clover/plant_clover09.jpg         	1	3	1	plant_clover09.jpg   	plant2   	7	clover    	9	clover09    	98	alive    	1	still	0	natural 	1	n	0	0        	 	0.0	0	119.3197717	119.419781700009	0.100010000009206
132000	100	217	stimuli/nonmovArt/headphones/nma_headphones01.jpg	1	3	1	nma_headphones01.jpg 	nonmovArt	4	headphones	18	headphones01	180	not_alive	0	still	0	artefact	0	n	0	0        	 	0.0	0	119.469762200009	119.569766600005	0.100004399995669
132150	100	218	stimuli/nonmovArt/clothespeg/nma_clothespeg02.jpg	1	3	1	nma_clothespeg02.jpg 	nonmovArt	4	clothespeg	8	clothespeg02	81	not_alive	0	still	0	artefact	0	n	0	0        	 	0.0	0	119.619764200004	119.719759800006	0.0999956000014208
132300	100	219	stimuli/movArt/boat/ma_boat05.jpg                	1	3	1	ma_boat05.jpg        	movArt   	2	boat      	2	boat05      	24	not_alive	0	moves	1	artefact	0	n	0	0        	 	0.0	0	119.769771000007	119.869764400006	0.0999933999992209
132450	100	220	stimuli/movArt/car/ma_car07.jpg                  	1	3	1	ma_car07.jpg         	movArt   	2	car       	5	car07       	56	not_alive	0	moves	1	artefact	0	n	0	0        	 	0.0	0	119.919790100001	120.019786000004	0.0999959000037052
132600	100	221	stimuli/nonmovNat/shell/nmn_shell09.jpg          	1	3	1	nmn_shell09.jpg      	nonmovNat	5	shell     	32	shell09     	328	not_alive	0	still	0	natural 	1	n	0	0        	 	0.0	0	120.06978250001	120.16980090001	0.100018400000408
132750	100	222	stimuli/animals2/bee/animal_bee02.jpg            	1	3	1	animal_bee02.jpg     	animals2 	1	bee       	0	bee02       	1	alive    	1	moves	1	natural 	1	n	1	0        	 	0.0	0	120.219783599998	120.319779500001	0.0999959000037052
132900	100	223	stimuli/movArt/car/ma_car07.jpg                  	1	3	1	ma_car07.jpg         	movArt   	2	car       	5	car07       	56	not_alive	0	moves	1	artefact	0	n	0	0        	 	0.0	0	120.369789300006	120.469780800006	0.0999914999993052
133050	100	224	stimuli/nonmovArt/lock/nma_lock07.jpg            	1	3	1	nma_lock07.jpg       	nonmovArt	4	lock      	24	lock07      	246	not_alive	0	still	0	artefact	0	n	0	1        	f	0.391984400004731	1	120.519783100011	120.619785400006	0.10000229999423
133200	100	225	stimuli/animals2/pigeon/animal_pigeon05.jpg      	1	3	1	animal_pigeon05.jpg  	animals2 	1	pigeon    	28	pigeon05    	284	alive    	1	moves	1	natural 	1	n	0	0        	 	0.0	0	120.669794400004	120.769788500009	0.099994100004551
133350	100	226	stimuli/plant/tree/plant_tree10.jpg              	1	3	1	plant_tree10.jpg     	plant    	6	tree      	35	tree10      	359	alive    	1	still	0	natural 	1	n	0	0        	 	0.0	0	120.819799200006	120.919805800004	0.100006599997869
133500	100	227	stimuli/animals/horse/animal_horse07.jpg         	1	3	1	animal_horse07.jpg   	animals  	0	horse     	20	horse07     	206	alive    	1	moves	1	natural 	1	n	0	0        	 	0.0	0	120.969804400011	121.0697984	0.0999939999892376
133651	100	228	stimuli/movArt/train/ma_train05.jpg              	1	3	1	ma_train05.jpg       	movArt   	2	train     	34	train05     	344	not_alive	0	moves	1	artefact	0	n	0	0        	 	0.0	0	121.119805499999	121.21980240001	0.0999969000113197
133801	100	229	stimuli/movArt/car/ma_car06.jpg                  	1	3	1	ma_car06.jpg         	movArt   	2	car       	5	car06       	55	not_alive	0	moves	1	artefact	0	n	0	0        	 	0.0	0	121.269838500011	121.369804400005	0.0999658999935491
133950	100	230	stimuli/nonmovArt/headphones/nma_headphones02.jpg	1	3	1	nma_headphones02.jpg 	nonmovArt	4	headphones	18	headphones02	181	not_alive	0	still	0	artefact	0	n	0	0        	 	0.0	0	121.419815800007	121.519811500009	0.0999957000021823
134100	100	231	stimuli/nonmovArt/bench/nma_bench01.jpg          	1	3	1	nma_bench01.jpg      	nonmovArt	4	bench     	1	bench01     	10	not_alive	0	still	0	artefact	0	n	0	0        	 	0.0	0	121.569818200005	121.669813500004	0.0999952999991365
134251	100	232	stimuli/nonmovNat/sand/nmn_sand08.jpg            	1	3	1	nmn_sand08.jpg       	nonmovNat	5	sand      	31	sand08      	317	not_alive	0	still	0	natural 	1	n	0	0        	 	0.0	0	121.719836400007	121.8198156	0.0999791999929585
134401	100	233	stimuli/animals2/tiger/animal_tiger05.jpg        	1	3	1	animal_tiger05.jpg   	animals2 	1	tiger     	33	tiger05     	334	alive    	1	moves	1	natural 	1	n	0	0        	 	0.0	0	121.869835999998	121.969816299999	0.0999803000013344
134551	100	234	stimuli/animals2/bee/animal_bee10.jpg            	1	3	1	animal_bee10.jpg     	animals2 	1	bee       	0	bee10       	9	alive    	1	moves	1	natural 	1	n	0	0        	 	0.0	0	122.019852900004	122.119822500012	0.0999696000071708
134701	100	235	stimuli/animals2/pigeon/animal_pigeon09.jpg      	1	3	1	animal_pigeon09.jpg  	animals2 	1	pigeon    	28	pigeon09    	288	alive    	1	moves	1	natural 	1	n	0	0        	 	0.0	0	122.16982960001	122.269825200012	0.0999956000014208
134851	100	236	stimuli/animals/dog/animal_dog09.jpg             	1	3	1	animal_dog09.jpg     	animals  	0	dog       	11	dog09       	118	alive    	1	moves	1	natural 	1	n	0	0        	 	0.0	0	122.319833100002	122.419830600003	0.0999975000013364
135001	100	237	stimuli/plant2/lemontree/plant_lemontree05.jpg   	1	3	1	plant_lemontree05.jpg	plant2   	7	lemontree 	22	lemontree05 	224	alive    	1	still	0	natural 	1	n	0	0        	 	0.0	0	122.469838100005	122.569853100009	0.100015000003623
135151	100	238	stimuli/nonmovNat/rock/nmn_rock09.jpg            	1	3	1	nmn_rock09.jpg       	nonmovNat	5	rock      	30	rock09      	308	not_alive	0	still	0	natural 	1	n	0	0        	 	0.0	0	122.619852400007	122.719833499999	0.0999810999928741
135301	100	239	stimuli/animals/eagle/animal_eagle08.jpg         	1	3	1	animal_eagle08.jpg   	animals  	0	eagle     	13	eagle08     	137	alive    	1	moves	1	natural 	1	n	0	0        	 	0.0	0	122.769858500003	122.869837100006	0.0999786000029417
141134	100	240	stimuli/movNat/river/mn_river01.jpg              	1	4	1	mn_river01.jpg       	movNat   	3	river     	29	river01     	290	not_alive	0	moves	1	natural 	1	n	0	0        	 	0.0	0	128.6033436	128.7033333	0.0999897000001511
141284	100	241	stimuli/animals2/tiger/animal_tiger10.jpg        	1	4	1	animal_tiger10.jpg   	animals2 	1	tiger     	33	tiger10     	339	alive    	1	moves	1	natural 	1	n	0	0        	 	0.0	0	128.753343900011	128.853338200002	0.099994299991522
141434	100	242	stimuli/plant/cactus/plant_cactus06.jpg          	1	4	1	plant_cactus06.jpg   	plant    	6	cactus    	4	cactus06    	45	alive    	1	still	0	natural 	1	n	0	0        	 	0.0	0	128.903350599998	129.003341800009	0.0999912000115728
141584	100	243	stimuli/animals/horse/animal_horse01.jpg         	1	4	1	animal_horse01.jpg   	animals  	0	horse     	20	horse01     	200	alive    	1	moves	1	natural 	1	n	0	0        	 	0.0	0	129.053351300012	129.153344000006	0.0999926999938907
141734	100	244	stimuli/movNat/waterfall/mn_waterfall10.jpg      	1	4	1	mn_waterfall10.jpg   	movNat   	3	waterfall 	37	waterfall10 	379	not_alive	0	moves	1	natural 	1	n	0	0        	 	0.0	0	129.203353400007	129.30334920001	0.0999958000029437
141884	100	245	stimuli/nonmovArt/bench/nma_bench06.jpg          	1	4	1	nma_bench06.jpg      	nonmovArt	4	bench     	1	bench06     	15	not_alive	0	still	0	artefact	0	n	0	0        	 	0.0	0	129.353358100008	129.453352299999	0.0999941999907605
142034	100	246	stimuli/animals/eagle/animal_eagle05.jpg         	1	4	1	animal_eagle05.jpg   	animals  	0	eagle     	13	eagle05     	134	alive    	1	moves	1	natural 	1	n	0	0        	 	0.0	0	129.50338010001	129.603356799998	0.0999766999884741
142184	100	247	stimuli/animals/dog/animal_dog10.jpg             	1	4	1	animal_dog10.jpg     	animals  	0	dog       	11	dog10       	119	alive    	1	moves	1	natural 	1	n	0	0        	 	0.0	0	129.653367600011	129.753362100004	0.0999944999930449
142334	100	248	stimuli/movNat/waves/mn_waves09.jpg              	1	4	1	mn_waves09.jpg       	movNat   	3	waves     	38	waves09     	388	not_alive	0	moves	1	natural 	1	n	0	0        	 	0.0	0	129.803371400005	129.9033643	0.0999928999954136
142484	100	249	stimuli/movNat/hotspring/mn_hotspring06.jpg      	1	4	1	mn_hotspring06.jpg   	movNat   	3	hotspring 	21	hotspring06 	215	not_alive	0	moves	1	natural 	1	n	0	0        	 	0.0	0	129.953373600001	130.053370000009	0.0999964000075124
142634	100	250	stimuli/movArt/train/ma_train03.jpg              	1	4	1	ma_train03.jpg       	movArt   	2	train     	34	train03     	342	not_alive	0	moves	1	artefact	0	n	0	0        	 	0.0	0	130.103377700012	130.203372600008	0.0999948999960907
142784	100	251	stimuli/nonmovArt/headphones/nma_headphones02.jpg	1	4	1	nma_headphones02.jpg 	nonmovArt	4	headphones	18	headphones02	181	not_alive	0	still	0	artefact	0	n	0	0        	 	0.0	0	130.253384000011	130.353376200001	0.0999921999900835
142934	100	252	stimuli/plant2/clover/plant_clover10.jpg         	1	4	1	plant_clover10.jpg   	plant2   	7	clover    	9	clover10    	99	alive    	1	still	0	natural 	1	n	0	0        	 	0.0	0	130.403386200007	130.5033884	0.100002199993469
143084	100	253	stimuli/movNat/river/mn_river01.jpg              	1	4	1	mn_river01.jpg       	movNat   	3	river     	29	river01     	290	not_alive	0	moves	1	natural 	1	n	0	0        	 	0.0	0	130.553392700007	130.653382600009	0.099989900001674
143234	100	254	stimuli/nonmovNat/sand/nmn_sand04.jpg            	1	4	1	nmn_sand04.jpg       	nonmovNat	5	sand      	31	sand04      	313	not_alive	0	still	0	natural 	1	n	1	0        	 	0.0	0	130.703426200009	130.803386500003	0.0999602999945637
143384	100	255	stimuli/animals/dolphin/animal_dolphin01.jpg     	1	4	1	animal_dolphin01.jpg 	animals  	0	dolphin   	12	dolphin01   	120	alive    	1	moves	1	natural 	1	n	0	0        	 	0.0	0	130.8533933	130.953384799999	0.0999914999993052
143534	100	256	stimuli/animals2/bee/animal_bee04.jpg            	1	4	1	animal_bee04.jpg     	animals2 	1	bee       	0	bee04       	3	alive    	1	moves	1	natural 	1	n	0	0        	 	0.0	0	131.003398400004	131.103387900002	0.0999894999986282
143684	100	257	stimuli/plant/grass/plant_grass08.jpg            	1	4	1	plant_grass08.jpg    	plant    	6	grass     	17	grass08     	177	alive    	1	still	0	natural 	1	n	0	1        	f	0.541944299999159	1	131.153399500006	131.253396700005	0.0999971999990521
143834	100	258	stimuli/animals2/pigeon/animal_pigeon08.jpg      	1	4	1	animal_pigeon08.jpg  	animals2 	1	pigeon    	28	pigeon08    	287	alive    	1	moves	1	natural 	1	n	0	0        	 	0.0	0	131.303404700011	131.403395700007	0.099990999995498
143984	100	259	stimuli/animals/cat/animal_cat01.jpg             	1	4	1	animal_cat01.jpg     	animals  	0	cat       	6	cat01       	60	alive    	1	moves	1	natural 	1	n	0	0        	 	0.0	0	131.453409000009	131.553403600003	0.0999945999938063
144134	100	260	stimuli/animals/horse/animal_horse08.jpg         	1	4	1	animal_horse08.jpg   	animals  	0	horse     	20	horse08     	207	alive    	1	moves	1	natural 	1	n	0	0        	 	0.0	0	131.603411200005	131.70340540001	0.0999942000053124
144284	100	261	stimuli/plant2/fern/plant_fern02.jpg             	1	4	1	plant_fern02.jpg     	plant2   	7	fern      	14	fern02      	141	alive    	1	still	0	natural 	1	n	0	0        	 	0.0	0	131.753414899998	131.853412000011	0.0999971000128426
144434	100	262	stimuli/plant2/moss/plant_moss07.jpg             	1	4	1	plant_moss07.jpg     	plant2   	7	moss      	25	moss07      	256	alive    	1	still	0	natural 	1	n	0	0        	 	0.0	0	131.903419000009	132.003418799999	0.099999799989746
144584	100	263	stimuli/nonmovNat/crystal/nmn_crystal10.jpg      	1	4	1	nmn_crystal10.jpg    	nonmovNat	5	crystal   	10	crystal10   	109	not_alive	0	still	0	natural 	1	n	0	0        	 	0.0	0	132.053423200006	132.153418600006	0.0999953999998979
144734	100	264	stimuli/plant2/palmtree/plant_palmtree09.jpg     	1	4	1	plant_palmtree09.jpg 	plant2   	7	palmtree  	27	palmtree09  	278	alive    	1	still	0	natural 	1	n	0	0        	 	0.0	0	132.203427400003	132.303423300007	0.0999959000037052
144884	100	265	stimuli/nonmovNat/sand/nmn_sand06.jpg            	1	4	1	nmn_sand06.jpg       	nonmovNat	5	sand      	31	sand06      	315	not_alive	0	still	0	natural 	1	n	0	0        	 	0.0	0	132.353433800003	132.453424200008	0.0999904000054812
145034	100	266	stimuli/movNat/waves/mn_waves08.jpg              	1	4	1	mn_waves08.jpg       	movNat   	3	waves     	38	waves08     	387	not_alive	0	moves	1	natural 	1	n	0	0        	 	0.0	0	132.503436700004	132.603431100011	0.0999944000068354
145184	100	267	stimuli/movArt/helicopter/ma_helicopter04.jpg    	1	4	1	ma_helicopter04.jpg  	movArt   	2	helicopter	19	helicopter04	193	not_alive	0	moves	1	artefact	0	n	0	0        	 	0.0	0	132.653442300012	132.753433400008	0.0999910999962594
145334	100	268	stimuli/plant2/lemontree/plant_lemontree04.jpg   	1	4	1	plant_lemontree04.jpg	plant2   	7	lemontree 	22	lemontree04 	223	alive    	1	still	0	natural 	1	n	0	0        	 	0.0	0	132.803443700002	132.903437400004	0.0999937000015052
145484	100	269	stimuli/nonmovNat/rock/nmn_rock06.jpg            	1	4	1	nmn_rock06.jpg       	nonmovNat	5	rock      	30	rock06      	305	not_alive	0	still	0	natural 	1	n	0	0        	 	0.0	0	132.953446	133.053442100005	0.0999961000052281
145634	100	270	stimuli/nonmovArt/lock/nma_lock03.jpg            	1	4	1	nma_lock03.jpg       	nonmovArt	4	lock      	24	lock03      	242	not_alive	0	still	0	artefact	0	n	0	0        	 	0.0	0	133.103461700011	133.203442900005	0.0999811999936355
145784	100	271	stimuli/animals2/lemur/animal_lemur06.jpg        	1	4	1	animal_lemur06.jpg   	animals2 	1	lemur     	23	lemur06     	235	alive    	1	moves	1	natural 	1	n	0	0        	 	0.0	0	133.253456100007	133.353451500006	0.0999953999998979
145934	100	272	stimuli/nonmovNat/sand/nmn_sand04.jpg            	1	4	1	nmn_sand04.jpg       	nonmovNat	5	sand      	31	sand04      	313	not_alive	0	still	0	natural 	1	n	0	0        	 	0.0	0	133.403457799999	133.503454400008	0.0999966000090353
146084	100	273	stimuli/nonmovArt/headphones/nma_headphones07.jpg	1	4	1	nma_headphones07.jpg 	nonmovArt	4	headphones	18	headphones07	186	not_alive	0	still	0	artefact	0	n	1	0        	 	0.0	0	133.553463400007	133.653455500011	0.0999921000038739
146234	100	274	stimuli/animals2/pigeon/animal_pigeon06.jpg      	1	4	1	animal_pigeon06.jpg  	animals2 	1	pigeon    	28	pigeon06    	285	alive    	1	moves	1	natural 	1	n	0	0        	 	0.0	0	133.703466899999	133.8034625	0.0999956000014208
146384	100	275	stimuli/movArt/boat/ma_boat01.jpg                	1	4	1	ma_boat01.jpg        	movArt   	2	boat      	2	boat01      	20	not_alive	0	moves	1	artefact	0	n	0	1        	f	0.392012099997373	1	133.853472100003	133.953466000006	0.0999939000030281
146534	100	276	stimuli/nonmovArt/bench/nma_bench04.jpg          	1	4	1	nma_bench04.jpg      	nonmovArt	4	bench     	1	bench04     	13	not_alive	0	still	0	artefact	0	n	0	0        	 	0.0	0	134.003474600002	134.103486500011	0.100011900009122
146684	100	277	stimuli/animals/cat/animal_cat08.jpg             	1	4	1	animal_cat08.jpg     	animals  	0	cat       	6	cat08       	67	alive    	1	moves	1	natural 	1	n	0	0        	 	0.0	0	134.153479500004	134.253473300007	0.0999938000022666
146834	100	278	stimuli/nonmovNat/crystal/nmn_crystal10.jpg      	1	4	1	nmn_crystal10.jpg    	nonmovNat	5	crystal   	10	crystal10   	109	not_alive	0	still	0	natural 	1	n	0	0        	 	0.0	0	134.303483600001	134.403495000006	0.100011400005314
146984	100	279	stimuli/movArt/bus/ma_bus09.jpg                  	1	4	1	ma_bus09.jpg         	movArt   	2	bus       	3	bus09       	38	not_alive	0	moves	1	artefact	0	n	0	0        	 	0.0	0	134.453490800006	134.553484900011	0.099994100004551
147134	100	280	stimuli/nonmovNat/crystal/nmn_crystal08.jpg      	1	4	1	nmn_crystal08.jpg    	nonmovNat	5	crystal   	10	crystal08   	107	not_alive	0	still	0	natural 	1	n	0	0        	 	0.0	0	134.603501900012	134.703483400008	0.0999814999959199
147284	100	281	stimuli/plant/flower/plant_flower02.jpg          	1	4	1	plant_flower02.jpg   	plant    	6	flower    	16	flower02    	161	alive    	1	still	0	natural 	1	n	0	0        	 	0.0	0	134.753496200006	134.853506700005	0.100010499998461
147434	100	282	stimuli/plant2/fern/plant_fern07.jpg             	1	4	1	plant_fern07.jpg     	plant2   	7	fern      	14	fern07      	146	alive    	1	still	0	natural 	1	n	0	0        	 	0.0	0	134.903498600004	135.003493299999	0.0999946999945678
147584	100	283	stimuli/movArt/bus/ma_bus07.jpg                  	1	4	1	ma_bus07.jpg         	movArt   	2	bus       	3	bus07       	36	not_alive	0	moves	1	artefact	0	n	0	0        	 	0.0	0	135.053506000011	135.153497600011	0.0999916000000667
147734	100	284	stimuli/plant/tree/plant_tree03.jpg              	1	4	1	plant_tree03.jpg     	plant    	6	tree      	35	tree03      	352	alive    	1	still	0	natural 	1	n	0	0        	 	0.0	0	135.20351050001	135.303500800001	0.0999902999901678
147884	100	285	stimuli/nonmovNat/shell/nmn_shell05.jpg          	1	4	1	nmn_shell05.jpg      	nonmovNat	5	shell     	32	shell05     	324	not_alive	0	still	0	natural 	1	n	0	0        	 	0.0	0	135.353511000008	135.453504300007	0.0999932999984594
148034	100	286	stimuli/movNat/hotspring/mn_hotspring06.jpg      	1	4	1	mn_hotspring06.jpg   	movNat   	3	hotspring 	21	hotspring06 	215	not_alive	0	moves	1	natural 	1	n	0	0        	 	0.0	0	135.503517400008	135.603529700005	0.100012299997616
148184	100	287	stimuli/animals2/bee/animal_bee05.jpg            	1	4	1	animal_bee05.jpg     	animals2 	1	bee       	0	bee05       	4	alive    	1	moves	1	natural 	1	n	0	0        	 	0.0	0	135.653516200007	135.753513600008	0.099997400000575
148334	100	288	stimuli/animals/cat/animal_cat04.jpg             	1	4	1	animal_cat04.jpg     	animals  	0	cat       	6	cat04       	63	alive    	1	moves	1	natural 	1	n	0	0        	 	0.0	0	135.803524200004	135.903518600011	0.0999944000068354
148484	100	289	stimuli/movArt/train/ma_train04.jpg              	1	4	1	ma_train04.jpg       	movArt   	2	train     	34	train04     	343	not_alive	0	moves	1	artefact	0	n	0	0        	 	0.0	0	135.95352960001	136.05352300001	0.0999933999992209
148634	100	290	stimuli/animals/horse/animal_horse03.jpg         	1	4	1	animal_horse03.jpg   	animals  	0	horse     	20	horse03     	202	alive    	1	moves	1	natural 	1	n	0	0        	 	0.0	0	136.103549600011	136.203527000005	0.0999773999938043
148784	100	291	stimuli/plant2/palmtree/plant_palmtree01.jpg     	1	4	1	plant_palmtree01.jpg 	plant2   	7	palmtree  	27	palmtree01  	270	alive    	1	still	0	natural 	1	n	0	0        	 	0.0	0	136.25353490001	136.353530100008	0.099995199998375
148934	100	292	stimuli/animals/eagle/animal_eagle04.jpg         	1	4	1	animal_eagle04.jpg   	animals  	0	eagle     	13	eagle04     	133	alive    	1	moves	1	natural 	1	n	0	0        	 	0.0	0	136.403539000006	136.50355020001	0.100011200003792
149084	100	293	stimuli/plant2/moss/plant_moss10.jpg             	1	4	1	plant_moss10.jpg     	plant2   	7	moss      	25	moss10      	259	alive    	1	still	0	natural 	1	n	0	0        	 	0.0	0	136.553541800007	136.653537400009	0.0999956000014208
149234	100	294	stimuli/plant/flower/plant_flower05.jpg          	1	4	1	plant_flower05.jpg   	plant    	6	flower    	16	flower05    	164	alive    	1	still	0	natural 	1	n	0	0        	 	0.0	0	136.703549700003	136.803554400001	0.100004699997953
149384	100	295	stimuli/plant2/clover/plant_clover02.jpg         	1	4	1	plant_clover02.jpg   	plant2   	7	clover    	9	clover02    	91	alive    	1	still	0	natural 	1	n	0	0        	 	0.0	0	136.853551799999	136.953545299999	0.0999934999999823
149534	100	296	stimuli/movNat/waterfall/mn_waterfall02.jpg      	1	4	1	mn_waterfall02.jpg   	movNat   	3	waterfall 	37	waterfall02 	371	not_alive	0	moves	1	natural 	1	n	0	0        	 	0.0	0	137.003552900001	137.103586099998	0.100033199996687
149684	100	297	stimuli/nonmovNat/cliff/nmn_cliff06.jpg          	1	4	1	nmn_cliff06.jpg      	nonmovNat	5	cliff     	7	cliff06     	75	not_alive	0	still	0	natural 	1	n	0	0        	 	0.0	0	137.153559700004	137.253553900009	0.0999942000053124
149834	100	298	stimuli/movNat/fire/mn_fire06.jpg                	1	4	1	mn_fire06.jpg        	movNat   	3	fire      	15	fire06      	155	not_alive	0	moves	1	natural 	1	n	0	0        	 	0.0	0	137.303566100003	137.403557800004	0.0999917000008281
149984	100	299	stimuli/movNat/waterfall/mn_waterfall05.jpg      	1	4	1	mn_waterfall05.jpg   	movNat   	3	waterfall 	37	waterfall05 	374	not_alive	0	moves	1	natural 	1	n	0	0        	 	0.0	0	137.453567100005	137.553560600005	0.0999934999999823
150134	100	300	stimuli/movNat/river/mn_river04.jpg              	1	4	1	mn_river04.jpg       	movNat   	3	river     	29	river04     	293	not_alive	0	moves	1	natural 	1	n	0	0        	 	0.0	0	137.603570700012	137.703578300003	0.100007599990931
150284	100	301	stimuli/animals2/lemur/animal_lemur10.jpg        	1	4	1	animal_lemur10.jpg   	animals2 	1	lemur     	23	lemur10     	239	alive    	1	moves	1	natural 	1	n	0	0        	 	0.0	0	137.7535775	137.853567900005	0.0999904000054812
150434	100	302	stimuli/nonmovNat/cliff/nmn_cliff01.jpg          	1	4	1	nmn_cliff01.jpg      	nonmovNat	5	cliff     	7	cliff01     	70	not_alive	0	still	0	natural 	1	n	0	0        	 	0.0	0	137.90358150001	138.003574800008	0.0999932999984594
150584	100	303	stimuli/animals/dog/animal_dog06.jpg             	1	4	1	animal_dog06.jpg     	animals  	0	dog       	11	dog06       	115	alive    	1	moves	1	natural 	1	n	0	0        	 	0.0	0	138.05358610001	138.153580400001	0.099994299991522
150734	100	304	stimuli/animals/dolphin/animal_dolphin09.jpg     	1	4	1	animal_dolphin09.jpg 	animals  	0	dolphin   	12	dolphin09   	128	alive    	1	moves	1	natural 	1	n	0	0        	 	0.0	0	138.203586800009	138.303582400011	0.0999956000014208
150884	100	305	stimuli/plant/grass/plant_grass01.jpg            	1	4	1	plant_grass01.jpg    	plant    	6	grass     	17	grass01     	170	alive    	1	still	0	natural 	1	n	0	0        	 	0.0	0	138.353591899999	138.453584800009	0.0999929000099655
151034	100	306	stimuli/nonmovArt/clothespeg/nma_clothespeg05.jpg	1	4	1	nma_clothespeg05.jpg 	nonmovArt	4	clothespeg	8	clothespeg05	84	not_alive	0	still	0	artefact	0	n	0	0        	 	0.0	0	138.503597700008	138.603592400003	0.0999946999945678
151184	100	307	stimuli/movNat/fire/mn_fire03.jpg                	1	4	1	mn_fire03.jpg        	movNat   	3	fire      	15	fire03      	152	not_alive	0	moves	1	natural 	1	n	0	0        	 	0.0	0	138.653597199998	138.75359230001	0.0999951000121655
151334	100	308	stimuli/movArt/helicopter/ma_helicopter09.jpg    	1	4	1	ma_helicopter09.jpg  	movArt   	2	helicopter	19	helicopter09	198	not_alive	0	moves	1	artefact	0	n	0	0        	 	0.0	0	138.803602700005	138.903617200005	0.100014499999816
151484	100	309	stimuli/nonmovArt/headphones/nma_headphones06.jpg	1	4	1	nma_headphones06.jpg 	nonmovArt	4	headphones	18	headphones06	185	not_alive	0	still	0	artefact	0	n	0	0        	 	0.0	0	138.953608800002	139.053603100008	0.0999943000060739
151634	100	310	stimuli/animals2/lemur/animal_lemur03.jpg        	1	4	1	animal_lemur03.jpg   	animals2 	1	lemur     	23	lemur03     	232	alive    	1	moves	1	natural 	1	n	0	0        	 	0.0	0	139.1036551	139.203602900001	0.0999478000012459
151784	100	311	stimuli/nonmovArt/lock/nma_lock03.jpg            	1	4	1	nma_lock03.jpg       	nonmovArt	4	lock      	24	lock03      	242	not_alive	0	still	0	artefact	0	n	0	0        	 	0.0	0	139.253615300011	139.353610400009	0.0999950999976136
151934	100	312	stimuli/plant2/moss/plant_moss08.jpg             	1	4	1	plant_moss08.jpg     	plant2   	7	moss      	25	moss08      	257	alive    	1	still	0	natural 	1	n	0	0        	 	0.0	0	139.403620099998	139.503611699998	0.0999916000000667
152084	100	313	stimuli/movArt/boat/ma_boat03.jpg                	1	4	1	ma_boat03.jpg        	movArt   	2	boat      	2	boat03      	22	not_alive	0	moves	1	artefact	0	n	0	0        	 	0.0	0	139.5536268	139.653617300006	0.0999905000062427
152234	100	314	stimuli/plant/vine/plant_vine07.jpg              	1	4	1	plant_vine07.jpg     	plant    	6	vine      	36	vine07      	366	alive    	1	still	0	natural 	1	n	0	0        	 	0.0	0	139.703625300011	139.803623400003	0.0999980999913532
152384	100	315	stimuli/animals2/tiger/animal_tiger04.jpg        	1	4	1	animal_tiger04.jpg   	animals2 	1	tiger     	33	tiger04     	333	alive    	1	moves	1	natural 	1	n	0	0        	 	0.0	0	139.85364690001	139.953623000009	0.0999760999984574
152534	100	316	stimuli/plant/flower/plant_flower01.jpg          	1	4	1	plant_flower01.jpg   	plant    	6	flower    	16	flower01    	160	alive    	1	still	0	natural 	1	n	0	0        	 	0.0	0	140.003635300003	140.103675000006	0.100039700002526
152684	100	317	stimuli/plant/grass/plant_grass10.jpg            	1	4	1	plant_grass10.jpg    	plant    	6	grass     	17	grass10     	179	alive    	1	still	0	natural 	1	n	0	0        	 	0.0	0	140.1536529	140.253635200002	0.0999823000020115
152834	100	318	stimuli/nonmovNat/cliff/nmn_cliff07.jpg          	1	4	1	nmn_cliff07.jpg      	nonmovNat	5	cliff     	7	cliff07     	76	not_alive	0	still	0	natural 	1	n	0	0        	 	0.0	0	140.303645000007	140.403658499999	0.100013499992201
152984	100	319	stimuli/nonmovNat/shell/nmn_shell02.jpg          	1	4	1	nmn_shell02.jpg      	nonmovNat	5	shell     	32	shell02     	321	not_alive	0	still	0	natural 	1	n	0	0        	 	0.0	0	140.453647200004	140.553643000007	0.0999958000029437
159534	100	320	stimuli/nonmovArt/mug/nma_mug01.jpg              	1	5	1	nma_mug01.jpg        	nonmovArt	4	mug       	26	mug01       	260	not_alive	0	still	0	artefact	0	n	0	0        	 	0.0	0	147.003843400002	147.103822400008	0.0999790000059875
159684	100	321	stimuli/movArt/boat/ma_boat09.jpg                	1	5	1	ma_boat09.jpg        	movArt   	2	boat      	2	boat09      	28	not_alive	0	moves	1	artefact	0	n	0	0        	 	0.0	0	147.153845500012	147.253823799998	0.0999782999861054
159834	100	322	stimuli/plant2/lemontree/plant_lemontree04.jpg   	1	5	1	plant_lemontree04.jpg	plant2   	7	lemontree 	22	lemontree04 	223	alive    	1	still	0	natural 	1	n	0	0        	 	0.0	0	147.303874300007	147.4038268	0.0999524999933783
159984	100	323	stimuli/nonmovArt/mug/nma_mug02.jpg              	1	5	1	nma_mug02.jpg        	nonmovArt	4	mug       	26	mug02       	261	not_alive	0	still	0	artefact	0	n	0	0        	 	0.0	0	147.453838300004	147.553832800011	0.0999945000075968
160134	100	324	stimuli/animals2/pigeon/animal_pigeon04.jpg      	1	5	1	animal_pigeon04.jpg  	animals2 	1	pigeon    	28	pigeon04    	283	alive    	1	moves	1	natural 	1	n	0	0        	 	0.0	0	147.603856200003	147.703836400004	0.099980200000573
160284	100	325	stimuli/movArt/train/ma_train04.jpg              	1	5	1	ma_train04.jpg       	movArt   	2	train     	34	train04     	343	not_alive	0	moves	1	artefact	0	n	0	0        	 	0.0	0	147.753849300003	147.853839100004	0.0999898000009125
160434	100	326	stimuli/plant2/clover/plant_clover02.jpg         	1	5	1	plant_clover02.jpg   	plant2   	7	clover    	9	clover02    	91	alive    	1	still	0	natural 	1	n	0	0        	 	0.0	0	147.903866200009	148.003845500003	0.0999792999937199
160584	100	327	stimuli/plant/cactus/plant_cactus01.jpg          	1	5	1	plant_cactus01.jpg   	plant    	6	cactus    	4	cactus01    	40	alive    	1	still	0	natural 	1	n	0	0        	 	0.0	0	148.053866600007	148.153846500005	0.0999798999982886
160734	100	328	stimuli/plant2/fern/plant_fern10.jpg             	1	5	1	plant_fern10.jpg     	plant2   	7	fern      	14	fern10      	149	alive    	1	still	0	natural 	1	n	0	0        	 	0.0	0	148.203858500012	148.303853000005	0.0999944999930449
160884	100	329	stimuli/movArt/car/ma_car08.jpg                  	1	5	1	ma_car08.jpg         	movArt   	2	car       	5	car08       	57	not_alive	0	moves	1	artefact	0	n	0	0        	 	0.0	0	148.353862100004	148.453855500004	0.0999933999992209
161034	100	330	stimuli/animals/dog/animal_dog08.jpg             	1	5	1	animal_dog08.jpg     	animals  	0	dog       	11	dog08       	117	alive    	1	moves	1	natural 	1	n	0	0        	 	0.0	0	148.503867899999	148.603859900002	0.0999920000031125
161184	100	331	stimuli/animals/dolphin/animal_dolphin09.jpg     	1	5	1	animal_dolphin09.jpg 	animals  	0	dolphin   	12	dolphin09   	128	alive    	1	moves	1	natural 	1	n	0	0        	 	0.0	0	148.653873700008	148.753865400009	0.0999917000008281
161334	100	332	stimuli/nonmovArt/mug/nma_mug10.jpg              	1	5	1	nma_mug10.jpg        	nonmovArt	4	mug       	26	mug10       	269	not_alive	0	still	0	artefact	0	n	0	0        	 	0.0	0	148.803875900005	148.903867400004	0.0999914999993052
161484	100	333	stimuli/nonmovArt/bench/nma_bench09.jpg          	1	5	1	nma_bench09.jpg      	nonmovArt	4	bench     	1	bench09     	18	not_alive	0	still	0	artefact	0	n	0	0        	 	0.0	0	148.953877699998	149.053873700002	0.0999960000044666
161635	100	334	stimuli/movArt/helicopter/ma_helicopter02.jpg    	1	5	1	ma_helicopter02.jpg  	movArt   	2	helicopter	19	helicopter02	191	not_alive	0	moves	1	artefact	0	n	0	0        	 	0.0	0	149.103903299998	149.203876200001	0.0999729000031948
161784	100	335	stimuli/plant2/palmtree/plant_palmtree02.jpg     	1	5	1	plant_palmtree02.jpg 	plant2   	7	palmtree  	27	palmtree02  	271	alive    	1	still	0	natural 	1	n	0	0        	 	0.0	0	149.253887400002	149.353880399998	0.0999929999961751
161934	100	336	stimuli/animals2/whale/animal_whale02.jpg        	1	5	1	animal_whale02.jpg   	animals2 	1	whale     	39	whale02     	391	alive    	1	moves	1	natural 	1	n	0	0        	 	0.0	0	149.403890400004	149.503888000007	0.0999976000020979
162084	100	337	stimuli/movNat/fire/mn_fire08.jpg                	1	5	1	mn_fire08.jpg        	movNat   	3	fire      	15	fire08      	157	not_alive	0	moves	1	natural 	1	n	0	0        	 	0.0	0	149.553894600002	149.653886700005	0.0999921000038739
162234	100	338	stimuli/animals2/whale/animal_whale09.jpg        	1	5	1	animal_whale09.jpg   	animals2 	1	whale     	39	whale09     	398	alive    	1	moves	1	natural 	1	n	0	0        	 	0.0	0	149.703899500004	149.80389190001	0.0999924000061583
162385	100	339	stimuli/movNat/waves/mn_waves04.jpg              	1	5	1	mn_waves04.jpg       	movNat   	3	waves     	38	waves04     	383	not_alive	0	moves	1	natural 	1	n	0	0        	 	0.0	0	149.853902300005	149.953896300009	0.0999940000037896
162535	100	340	stimuli/animals/eagle/animal_eagle10.jpg         	1	5	1	animal_eagle10.jpg   	animals  	0	eagle     	13	eagle10     	139	alive    	1	moves	1	natural 	1	n	0	0        	 	0.0	0	150.0039081	150.103944400005	0.10003630000574
162685	100	341	stimuli/nonmovNat/shell/nmn_shell08.jpg          	1	5	1	nmn_shell08.jpg      	nonmovNat	5	shell     	32	shell08     	327	not_alive	0	still	0	natural 	1	n	0	0        	 	0.0	0	150.153911700007	150.253923800003	0.100012099996093
162835	100	342	stimuli/plant/vine/plant_vine01.jpg              	1	5	1	plant_vine01.jpg     	plant    	6	vine      	36	vine01      	360	alive    	1	still	0	natural 	1	n	1	0        	 	0.0	0	150.303914600008	150.403907300002	0.0999926999938907
162985	100	343	stimuli/animals2/bee/animal_bee07.jpg            	1	5	1	animal_bee07.jpg     	animals2 	1	bee       	0	bee07       	6	alive    	1	moves	1	natural 	1	n	0	0        	 	0.0	0	150.453917999999	150.553914100004	0.0999961000052281
163135	100	344	stimuli/animals2/whale/animal_whale02.jpg        	1	5	1	animal_whale02.jpg   	animals2 	1	whale     	39	whale02     	391	alive    	1	moves	1	natural 	1	n	0	0        	 	0.0	0	150.603922499999	150.703917100007	0.0999946000083582
163285	100	345	stimuli/plant/tree/plant_tree01.jpg              	1	5	1	plant_tree01.jpg     	plant    	6	tree      	35	tree01      	350	alive    	1	still	0	natural 	1	n	0	1        	f	0.455595699997502	1	150.753927800004	150.853919500005	0.0999917000008281
163435	100	346	stimuli/movArt/car/ma_car08.jpg                  	1	5	1	ma_car08.jpg         	movArt   	2	car       	5	car08       	57	not_alive	0	moves	1	artefact	0	n	0	0        	 	0.0	0	150.903930400003	151.003939700007	0.100009300003876
163585	100	347	stimuli/nonmovNat/rock/nmn_rock04.jpg            	1	5	1	nmn_rock04.jpg       	nonmovNat	5	rock      	30	rock04      	303	not_alive	0	still	0	natural 	1	n	0	0        	 	0.0	0	151.053933700008	151.153927600011	0.0999939000030281
163735	100	348	stimuli/animals2/tiger/animal_tiger07.jpg        	1	5	1	animal_tiger07.jpg   	animals2 	1	tiger     	33	tiger07     	336	alive    	1	moves	1	natural 	1	n	0	0        	 	0.0	0	151.2039372	151.303932800001	0.0999956000014208
163885	100	349	stimuli/nonmovArt/lock/nma_lock01.jpg            	1	5	1	nma_lock01.jpg       	nonmovArt	4	lock      	24	lock01      	240	not_alive	0	still	0	artefact	0	n	0	0        	 	0.0	0	151.353943300011	151.453935199999	0.0999918999877991
164035	100	350	stimuli/nonmovArt/clothespeg/nma_clothespeg07.jpg	1	5	1	nma_clothespeg07.jpg 	nonmovArt	4	clothespeg	8	clothespeg07	86	not_alive	0	still	0	artefact	0	n	0	0        	 	0.0	0	151.503948700003	151.603973400008	0.100024700004724
164185	100	351	stimuli/nonmovNat/rock/nmn_rock02.jpg            	1	5	1	nmn_rock02.jpg       	nonmovNat	5	rock      	30	rock02      	301	not_alive	0	still	0	natural 	1	n	0	0        	 	0.0	0	151.653950100008	151.75396300001	0.100012900002184
164335	100	352	stimuli/plant/cactus/plant_cactus01.jpg          	1	5	1	plant_cactus01.jpg   	plant    	6	cactus    	4	cactus01    	40	alive    	1	still	0	natural 	1	n	0	0        	 	0.0	0	151.803953399998	151.903947300001	0.0999939000030281
164485	100	353	stimuli/plant/vine/plant_vine04.jpg              	1	5	1	plant_vine04.jpg     	plant    	6	vine      	36	vine04      	363	alive    	1	still	0	natural 	1	n	0	0        	 	0.0	0	151.9539582	152.053952100003	0.0999939000030281
164635	100	354	stimuli/movArt/bus/ma_bus02.jpg                  	1	5	1	ma_bus02.jpg         	movArt   	2	bus       	3	bus02       	31	not_alive	0	moves	1	artefact	0	n	0	0        	 	0.0	0	152.104018600003	152.203955400008	0.099936800004798
164785	100	355	stimuli/movNat/hotspring/mn_hotspring06.jpg      	1	5	1	mn_hotspring06.jpg   	movNat   	3	hotspring 	21	hotspring06 	215	not_alive	0	moves	1	natural 	1	n	0	0        	 	0.0	0	152.253968300007	152.353977200008	0.10000890000083
164935	100	356	stimuli/plant2/lemontree/plant_lemontree06.jpg   	1	5	1	plant_lemontree06.jpg	plant2   	7	lemontree 	22	lemontree06 	225	alive    	1	still	0	natural 	1	n	0	0        	 	0.0	0	152.403968099999	152.503969800004	0.100001700004213
165085	100	357	stimuli/nonmovArt/clothespeg/nma_clothespeg10.jpg	1	5	1	nma_clothespeg10.jpg 	nonmovArt	4	clothespeg	8	clothespeg10	89	not_alive	0	still	0	artefact	0	n	0	0        	 	0.0	0	152.5539747	152.653969000006	0.0999943000060739
165235	100	358	stimuli/plant/tree/plant_tree10.jpg              	1	5	1	plant_tree10.jpg     	plant    	6	tree      	35	tree10      	359	alive    	1	still	0	natural 	1	n	0	0        	 	0.0	0	152.70397670001	152.803973400005	0.0999966999952448
165385	100	359	stimuli/movArt/car/ma_car03.jpg                  	1	5	1	ma_car03.jpg         	movArt   	2	car       	5	car03       	52	not_alive	0	moves	1	artefact	0	n	0	0        	 	0.0	0	152.854008900002	152.953973700001	0.0999647999997251
165535	100	360	stimuli/animals2/lemur/animal_lemur04.jpg        	1	5	1	animal_lemur04.jpg   	animals2 	1	lemur     	23	lemur04     	233	alive    	1	moves	1	natural 	1	n	0	0        	 	0.0	0	153.003986700001	153.104080200006	0.100093500004732
165685	100	361	stimuli/nonmovNat/sand/nmn_sand02.jpg            	1	5	1	nmn_sand02.jpg       	nonmovNat	5	sand      	31	sand02      	311	not_alive	0	still	0	natural 	1	n	0	0        	 	0.0	0	153.153990799998	153.253983000002	0.0999922000046354
165835	100	362	stimuli/animals2/bee/animal_bee03.jpg            	1	5	1	animal_bee03.jpg     	animals2 	1	bee       	0	bee03       	2	alive    	1	moves	1	natural 	1	n	0	0        	 	0.0	0	153.303993000009	153.403988200007	0.099995199998375
165985	100	363	stimuli/plant/flower/plant_flower06.jpg          	1	5	1	plant_flower06.jpg   	plant    	6	flower    	16	flower06    	165	alive    	1	still	0	natural 	1	n	0	0        	 	0.0	0	153.45401300001	153.553991799999	0.0999787999899127
166135	100	364	stimuli/plant/cactus/plant_cactus10.jpg          	1	5	1	plant_cactus10.jpg   	plant    	6	cactus    	4	cactus10    	49	alive    	1	still	0	natural 	1	n	0	0        	 	0.0	0	153.604025500012	153.703997600009	0.0999720999971032
166285	100	365	stimuli/movNat/river/mn_river08.jpg              	1	5	1	mn_river08.jpg       	movNat   	3	river     	29	river08     	297	not_alive	0	moves	1	natural 	1	n	0	0        	 	0.0	0	153.754008000004	153.854010100011	0.100002100007259
166435	100	366	stimuli/nonmovNat/rock/nmn_rock07.jpg            	1	5	1	nmn_rock07.jpg       	nonmovNat	5	rock      	30	rock07      	306	not_alive	0	still	0	natural 	1	n	0	0        	 	0.0	0	153.904009200007	154.0040056	0.0999963999929605
166585	100	367	stimuli/movArt/bus/ma_bus04.jpg                  	1	5	1	ma_bus04.jpg         	movArt   	2	bus       	3	bus04       	33	not_alive	0	moves	1	artefact	0	n	0	0        	 	0.0	0	154.054013000001	154.154007200006	0.0999942000053124
166735	100	368	stimuli/animals2/whale/animal_whale05.jpg        	1	5	1	animal_whale05.jpg   	animals2 	1	whale     	39	whale05     	394	alive    	1	moves	1	natural 	1	n	0	0        	 	0.0	0	154.204022100006	154.304008899999	0.0999867999926209
166885	100	369	stimuli/animals2/pigeon/animal_pigeon01.jpg      	1	5	1	animal_pigeon01.jpg  	animals2 	1	pigeon    	28	pigeon01    	280	alive    	1	moves	1	natural 	1	n	0	0        	 	0.0	0	154.354031300012	154.454019199999	0.099987899986445
167035	100	370	stimuli/movArt/car/ma_car10.jpg                  	1	5	1	ma_car10.jpg         	movArt   	2	car       	5	car10       	59	not_alive	0	moves	1	artefact	0	n	0	0        	 	0.0	0	154.504037999999	154.60402150001	0.0999835000111489
167185	100	371	stimuli/movArt/bus/ma_bus05.jpg                  	1	5	1	ma_bus05.jpg         	movArt   	2	bus       	3	bus05       	34	not_alive	0	moves	1	artefact	0	n	0	0        	 	0.0	0	154.654029000012	154.7540228	0.0999937999877147
167335	100	372	stimuli/animals2/bee/animal_bee09.jpg            	1	5	1	animal_bee09.jpg     	animals2 	1	bee       	0	bee09       	8	alive    	1	moves	1	natural 	1	n	0	0        	 	0.0	0	154.804032100001	154.904026000004	0.0999939000030281
167485	100	373	stimuli/nonmovNat/rock/nmn_rock08.jpg            	1	5	1	nmn_rock08.jpg       	nonmovNat	5	rock      	30	rock08      	307	not_alive	0	still	0	natural 	1	n	1	0        	 	0.0	0	154.954038199998	155.054034100001	0.0999959000037052
167635	100	374	stimuli/nonmovArt/bench/nma_bench08.jpg          	1	5	1	nma_bench08.jpg      	nonmovArt	4	bench     	1	bench08     	17	not_alive	0	still	0	artefact	0	n	0	0        	 	0.0	0	155.104092499998	155.204034499999	0.0999420000007376
167785	100	375	stimuli/nonmovNat/cliff/nmn_cliff04.jpg          	1	5	1	nmn_cliff04.jpg      	nonmovNat	5	cliff     	7	cliff04     	73	not_alive	0	still	0	natural 	1	n	0	1        	f	0.392014300014125	1	155.254044600006	155.354040100006	0.0999955000006594
167935	100	376	stimuli/nonmovArt/headphones/nma_headphones05.jpg	1	5	1	nma_headphones05.jpg 	nonmovArt	4	headphones	18	headphones05	184	not_alive	0	still	0	artefact	0	n	0	0        	 	0.0	0	155.404050500001	155.50404710001	0.0999966000090353
168085	100	377	stimuli/plant2/clover/plant_clover03.jpg         	1	5	1	plant_clover03.jpg   	plant2   	7	clover    	9	clover03    	92	alive    	1	still	0	natural 	1	n	0	0        	 	0.0	0	155.554069100006	155.654058100001	0.0999889999948209
168235	100	378	stimuli/animals/eagle/animal_eagle09.jpg         	1	5	1	animal_eagle09.jpg   	animals  	0	eagle     	13	eagle09     	138	alive    	1	moves	1	natural 	1	n	0	0        	 	0.0	0	155.704069700005	155.804040500007	0.0999708000017563
168385	100	379	stimuli/plant/tree/plant_tree01.jpg              	1	5	1	plant_tree01.jpg     	plant    	6	tree      	35	tree01      	350	alive    	1	still	0	natural 	1	n	0	0        	 	0.0	0	155.854074000003	155.954068300009	0.0999943000060739
168535	100	380	stimuli/plant2/moss/plant_moss07.jpg             	1	5	1	plant_moss07.jpg     	plant2   	7	moss      	25	moss07      	256	alive    	1	still	0	natural 	1	n	0	0        	 	0.0	0	156.004091800001	156.104074600007	0.0999828000058187
168685	100	381	stimuli/plant2/lemontree/plant_lemontree07.jpg   	1	5	1	plant_lemontree07.jpg	plant2   	7	lemontree 	22	lemontree07 	226	alive    	1	still	0	natural 	1	n	1	0        	 	0.0	0	156.154083900008	156.254074800003	0.0999908999947365
168835	100	382	stimuli/animals2/whale/animal_whale06.jpg        	1	5	1	animal_whale06.jpg   	animals2 	1	whale     	39	whale06     	395	alive    	1	moves	1	natural 	1	n	0	0        	 	0.0	0	156.304086300006	156.404079700005	0.0999933999992209
168985	100	383	stimuli/movNat/waves/mn_waves10.jpg              	1	5	1	mn_waves10.jpg       	movNat   	3	waves     	38	waves10     	389	not_alive	0	moves	1	natural 	1	n	0	1        	f	0.409466400000383	1	156.454088600003	156.554088100005	0.0999995000020135
169135	100	384	stimuli/movArt/car/ma_car09.jpg                  	1	5	1	ma_car09.jpg         	movArt   	2	car       	5	car09       	58	not_alive	0	moves	1	artefact	0	n	0	0        	 	0.0	0	156.604082500009	156.704087200007	0.100004699997953
169285	100	385	stimuli/plant2/fern/plant_fern07.jpg             	1	5	1	plant_fern07.jpg     	plant2   	7	fern      	14	fern07      	146	alive    	1	still	0	natural 	1	n	0	0        	 	0.0	0	156.754084600005	156.854094599999	0.100009999994654
169435	100	386	stimuli/movNat/fire/mn_fire05.jpg                	1	5	1	mn_fire05.jpg        	movNat   	3	fire      	15	fire05      	154	not_alive	0	moves	1	natural 	1	n	0	0        	 	0.0	0	156.904088900003	157.004082200001	0.0999932999984594
169585	100	387	stimuli/animals/dog/animal_dog05.jpg             	1	5	1	animal_dog05.jpg     	animals  	0	dog       	11	dog05       	114	alive    	1	moves	1	natural 	1	n	0	0        	 	0.0	0	157.054094600011	157.15410520001	0.100010599999223
169735	100	388	stimuli/movArt/boat/ma_boat02.jpg                	1	5	1	ma_boat02.jpg        	movArt   	2	boat      	2	boat02      	21	not_alive	0	moves	1	artefact	0	n	0	0        	 	0.0	0	157.204096500005	157.304119500011	0.100023000006331
169885	100	389	stimuli/animals2/tiger/animal_tiger03.jpg        	1	5	1	animal_tiger03.jpg   	animals2 	1	tiger     	33	tiger03     	332	alive    	1	moves	1	natural 	1	n	0	0        	 	0.0	0	157.354135400004	157.454093799999	0.0999583999946481
170035	100	390	stimuli/nonmovArt/bench/nma_bench06.jpg          	1	5	1	nma_bench06.jpg      	nonmovArt	4	bench     	1	bench06     	15	not_alive	0	still	0	artefact	0	n	0	0        	 	0.0	0	157.504107000001	157.604098600001	0.0999916000000667
170185	100	391	stimuli/movArt/train/ma_train03.jpg              	1	5	1	ma_train03.jpg       	movArt   	2	train     	34	train03     	342	not_alive	0	moves	1	artefact	0	n	0	0        	 	0.0	0	157.654109900002	157.754103700005	0.0999938000022666
170335	100	392	stimuli/plant2/clover/plant_clover04.jpg         	1	5	1	plant_clover04.jpg   	plant2   	7	clover    	9	clover04    	93	alive    	1	still	0	natural 	1	n	0	0        	 	0.0	0	157.804115799998	157.904127500005	0.100011700007599
170485	100	393	stimuli/nonmovArt/headphones/nma_headphones04.jpg	1	5	1	nma_headphones04.jpg 	nonmovArt	4	headphones	18	headphones04	183	not_alive	0	still	0	artefact	0	n	0	0        	 	0.0	0	157.9541168	158.054122900008	0.100006100008613
170635	100	394	stimuli/nonmovNat/sand/nmn_sand07.jpg            	1	5	1	nmn_sand07.jpg       	nonmovNat	5	sand      	31	sand07      	316	not_alive	0	still	0	natural 	1	n	0	0        	 	0.0	0	158.104121600001	158.20411440001	0.0999928000092041
170785	100	395	stimuli/animals2/lemur/animal_lemur06.jpg        	1	5	1	animal_lemur06.jpg   	animals2 	1	lemur     	23	lemur06     	235	alive    	1	moves	1	natural 	1	n	0	0        	 	0.0	0	158.254126800006	158.354132599998	0.100005799991777
170935	100	396	stimuli/plant/cactus/plant_cactus05.jpg          	1	5	1	plant_cactus05.jpg   	plant    	6	cactus    	4	cactus05    	44	alive    	1	still	0	natural 	1	n	0	0        	 	0.0	0	158.404144400003	158.5041241	0.0999796999967657
171085	100	397	stimuli/plant2/moss/plant_moss05.jpg             	1	5	1	plant_moss05.jpg     	plant2   	7	moss      	25	moss05      	254	alive    	1	still	0	natural 	1	n	0	0        	 	0.0	0	158.554133500002	158.654135300007	0.100001800004975
171235	100	398	stimuli/plant/grass/plant_grass06.jpg            	1	5	1	plant_grass06.jpg    	plant    	6	grass     	17	grass06     	175	alive    	1	still	0	natural 	1	n	0	0        	 	0.0	0	158.704141800001	158.804133500002	0.0999917000008281
171385	100	399	stimuli/nonmovArt/clothespeg/nma_clothespeg06.jpg	1	5	1	nma_clothespeg06.jpg 	nonmovArt	4	clothespeg	8	clothespeg06	85	not_alive	0	still	0	artefact	0	n	0	0        	 	0.0	0	158.854141200005	158.954134800006	0.0999936000007438
179768	100	400	stimuli/nonmovArt/clothespeg/nma_clothespeg09.jpg	1	6	1	nma_clothespeg09.jpg 	nonmovArt	4	clothespeg	8	clothespeg09	88	not_alive	0	still	0	artefact	0	n	0	0        	 	0.0	0	167.237715800002	167.337702500008	0.0999867000064114
179918	100	401	stimuli/nonmovNat/sand/nmn_sand03.jpg            	1	6	1	nmn_sand03.jpg       	nonmovNat	5	sand      	31	sand03      	312	not_alive	0	still	0	natural 	1	n	0	0        	 	0.0	0	167.387715100005	167.487708600005	0.0999934999999823
180068	100	402	stimuli/plant/vine/plant_vine09.jpg              	1	6	1	plant_vine09.jpg     	plant    	6	vine      	36	vine09      	368	alive    	1	still	0	natural 	1	n	0	0        	 	0.0	0	167.537721000001	167.637709900009	0.0999889000086114
180218	100	403	stimuli/animals2/tiger/animal_tiger10.jpg        	1	6	1	animal_tiger10.jpg   	animals2 	1	tiger     	33	tiger10     	339	alive    	1	moves	1	natural 	1	n	0	0        	 	0.0	0	167.687721000009	167.787717600004	0.0999965999944834
180368	100	404	stimuli/nonmovNat/crystal/nmn_crystal06.jpg      	1	6	1	nmn_crystal06.jpg    	nonmovNat	5	crystal   	10	crystal06   	105	not_alive	0	still	0	natural 	1	n	0	0        	 	0.0	0	167.837731000007	167.937694400011	0.0999634000036167
180518	100	405	stimuli/movNat/fire/mn_fire04.jpg                	1	6	1	mn_fire04.jpg        	movNat   	3	fire      	15	fire04      	153	not_alive	0	moves	1	natural 	1	n	0	0        	 	0.0	0	167.987733000002	168.087734800007	0.100001800004975
180668	100	406	stimuli/movNat/hotspring/mn_hotspring09.jpg      	1	6	1	mn_hotspring09.jpg   	movNat   	3	hotspring 	21	hotspring09 	218	not_alive	0	moves	1	natural 	1	n	0	0        	 	0.0	0	168.137733100011	168.2377366	0.100003499988816
180818	100	407	stimuli/nonmovNat/cliff/nmn_cliff04.jpg          	1	6	1	nmn_cliff04.jpg      	nonmovNat	5	cliff     	7	cliff04     	73	not_alive	0	still	0	natural 	1	n	0	0        	 	0.0	0	168.287742700006	168.387735000011	0.0999923000053968
180968	100	408	stimuli/plant2/palmtree/plant_palmtree07.jpg     	1	6	1	plant_palmtree07.jpg 	plant2   	7	palmtree  	27	palmtree07  	276	alive    	1	still	0	natural 	1	n	0	0        	 	0.0	0	168.437756500003	168.537736900005	0.0999804000020958
181118	100	409	stimuli/movNat/waves/mn_waves01.jpg              	1	6	1	mn_waves01.jpg       	movNat   	3	waves     	38	waves01     	380	not_alive	0	moves	1	natural 	1	n	0	0        	 	0.0	0	168.587744400007	168.687751300007	0.100006900000153
181268	100	410	stimuli/animals2/bee/animal_bee08.jpg            	1	6	1	animal_bee08.jpg     	animals2 	1	bee       	0	bee08       	7	alive    	1	moves	1	natural 	1	n	0	0        	 	0.0	0	168.737748400003	168.837746300007	0.0999979000043822
181418	100	411	stimuli/animals/cat/animal_cat02.jpg             	1	6	1	animal_cat02.jpg     	animals  	0	cat       	6	cat02       	61	alive    	1	moves	1	natural 	1	n	0	0        	 	0.0	0	168.887764900006	168.987745999999	0.0999810999928741
181568	100	412	stimuli/animals/dog/animal_dog07.jpg             	1	6	1	animal_dog07.jpg     	animals  	0	dog       	11	dog07       	116	alive    	1	moves	1	natural 	1	n	0	0        	 	0.0	0	169.037758999999	169.13775010001	0.0999911000108114
181718	100	413	stimuli/movArt/helicopter/ma_helicopter08.jpg    	1	6	1	ma_helicopter08.jpg  	movArt   	2	helicopter	19	helicopter08	197	not_alive	0	moves	1	artefact	0	n	0	0        	 	0.0	0	169.187762200003	169.2877611	0.0999988999974448
