onset	duration	eventnumber	stimulus_file	blockno	trialno	is_faststream	stim	stim_category	category_number	exemplar	exemplar_number	image_name	image_number	aliveness	aliveness_bin	movement	movement_bin	naturalness	naturalness_bin	response_hand_alive	istarget	response	keypressed	rt	correct	time_stimon	time_stimoff	stimdur
38687	100	0	stimuli/plant/tree/plant_tree05.jpg              	1	1	1	plant_tree05.jpg     	plant    	6	tree      	35	tree05      	354	alive    	1	still	0	natural 	1	n	0	0        	 	0.0	0	84.9637299999595	85.0637015999528	0.099971599993296
38837	100	1	stimuli/movNat/hotspring/mn_hotspring10.jpg      	1	1	1	mn_hotspring10.jpg   	movNat   	3	hotspring 	21	hotspring10 	219	not_alive	0	moves	1	natural 	1	n	0	0        	 	0.0	0	85.1137228999287	85.2137069000164	0.0999840000877157
38987	100	2	stimuli/movNat/waves/mn_waves02.jpg              	1	1	1	mn_waves02.jpg       	movNat   	3	waves     	38	waves02     	381	not_alive	0	moves	1	natural 	1	n	0	0        	 	0.0	0	85.2637167000212	85.3637101999484	0.0999934999272227
39137	100	3	stimuli/plant/flower/plant_flower08.jpg          	1	1	1	plant_flower08.jpg   	plant    	6	flower    	16	flower08    	167	alive    	1	still	0	natural 	1	n	0	0        	 	0.0	0	85.4137198999524	85.5137237999588	0.100003900006413
39287	100	4	stimuli/movArt/train/ma_train10.jpg              	1	1	1	ma_train10.jpg       	movArt   	2	train     	34	train10     	349	not_alive	0	moves	1	artefact	0	n	0	0        	 	0.0	0	85.5637213999871	85.6637312999228	0.100009899935685
39437	100	5	stimuli/movArt/bus/ma_bus03.jpg                  	1	1	1	ma_bus03.jpg         	movArt   	2	bus       	3	bus03       	32	not_alive	0	moves	1	artefact	0	n	0	0        	 	0.0	0	85.7137279999442	85.8137217999902	0.0999938000459224
39587	100	6	stimuli/nonmovArt/lock/nma_lock04.jpg            	1	1	1	nma_lock04.jpg       	nonmovArt	4	lock      	24	lock04      	243	not_alive	0	still	0	artefact	0	n	0	0        	 	0.0	0	85.8637306999881	85.9637247999199	0.0999940999317914
39738	100	7	stimuli/movNat/river/mn_river02.jpg              	1	1	1	mn_river02.jpg       	movNat   	3	river     	29	river02     	291	not_alive	0	moves	1	natural 	1	n	0	0        	 	0.0	0	86.0140264999354	86.1137308999896	0.0997044000541791
39887	100	8	stimuli/nonmovArt/lock/nma_lock09.jpg            	1	1	1	nma_lock09.jpg       	nonmovArt	4	lock      	24	lock09      	248	not_alive	0	still	0	artefact	0	n	0	0        	 	0.0	0	86.1637402999913	86.2637324000243	0.0999921000329778
40037	100	9	stimuli/nonmovArt/mug/nma_mug05.jpg              	1	1	1	nma_mug05.jpg        	nonmovArt	4	mug       	26	mug05       	264	not_alive	0	still	0	artefact	0	n	0	0        	 	0.0	0	86.3137435999233	86.4137398999883	0.0999963000649586
40187	100	10	stimuli/animals/horse/animal_horse03.jpg         	1	1	1	animal_horse03.jpg   	animals  	0	horse     	20	horse03     	202	alive    	1	moves	1	natural 	1	n	0	0        	 	0.0	0	86.4637469999725	86.5637353999773	0.0999884000048041
40337	100	11	stimuli/plant/cactus/plant_cactus10.jpg          	1	1	1	plant_cactus10.jpg   	plant    	6	cactus    	4	cactus10    	49	alive    	1	still	0	natural 	1	n	0	0        	 	0.0	0	86.6137459999882	86.7137381000211	0.0999921000329778
40487	100	12	stimuli/nonmovNat/cliff/nmn_cliff06.jpg          	1	1	1	nmn_cliff06.jpg      	nonmovNat	5	cliff     	7	cliff06     	75	not_alive	0	still	0	natural 	1	n	0	0        	 	0.0	0	86.7637669999385	86.8637757999822	0.100008800043724
40637	100	13	stimuli/animals/eagle/animal_eagle09.jpg         	1	1	1	animal_eagle09.jpg   	animals  	0	eagle     	13	eagle09     	138	alive    	1	moves	1	natural 	1	n	0	0        	 	0.0	0	86.9137705999892	87.0137485000305	0.0999779000412673
40787	100	14	stimuli/movNat/waterfall/mn_waterfall04.jpg      	1	1	1	mn_waterfall04.jpg   	movNat   	3	waterfall 	37	waterfall04 	373	not_alive	0	moves	1	natural 	1	n	0	0        	 	0.0	0	87.0637574000284	87.1637721000006	0.100014699972235
40937	100	15	stimuli/plant/vine/plant_vine10.jpg              	1	1	1	plant_vine10.jpg     	plant    	6	vine      	36	vine10      	369	alive    	1	still	0	natural 	1	n	0	0        	 	0.0	0	87.2137608999619	87.3137557000154	0.0999948000535369
41087	100	16	stimuli/nonmovNat/rock/nmn_rock06.jpg            	1	1	1	nmn_rock06.jpg       	nonmovNat	5	rock      	30	rock06      	305	not_alive	0	still	0	natural 	1	n	0	0        	 	0.0	0	87.3637694999343	87.4637618999695	0.0999924000352621
41237	100	17	stimuli/movNat/waves/mn_waves02.jpg              	1	1	1	mn_waves02.jpg       	movNat   	3	waves     	38	waves02     	381	not_alive	0	moves	1	natural 	1	n	0	0        	 	0.0	0	87.5137695999583	87.6137802000158	0.100010600057431
41387	100	18	stimuli/plant/cactus/plant_cactus06.jpg          	1	1	1	plant_cactus06.jpg   	plant    	6	cactus    	4	cactus06    	45	alive    	1	still	0	natural 	1	n	0	0        	 	0.0	0	87.6637742000166	87.7637673999416	0.0999931999249384
41537	100	19	stimuli/movArt/car/ma_car06.jpg                  	1	1	1	ma_car06.jpg         	movArt   	2	car       	5	car06       	55	not_alive	0	moves	1	artefact	0	n	0	0        	 	0.0	0	87.8137770999456	87.9137733000098	0.0999962000641972
41687	100	20	stimuli/nonmovArt/clothespeg/nma_clothespeg07.jpg	1	1	1	nma_clothespeg07.jpg 	nonmovArt	4	clothespeg	8	clothespeg07	86	not_alive	0	still	0	artefact	0	n	0	0        	 	0.0	0	87.9637806999963	88.063776499941	0.0999957999447361
41837	100	21	stimuli/nonmovNat/cliff/nmn_cliff03.jpg          	1	1	1	nmn_cliff03.jpg      	nonmovNat	5	cliff     	7	cliff03     	72	not_alive	0	still	0	natural 	1	n	0	0        	 	0.0	0	88.1137863999466	88.213780799997	0.0999944000504911
41987	100	22	stimuli/plant/flower/plant_flower05.jpg          	1	1	1	plant_flower05.jpg   	plant    	6	flower    	16	flower05    	164	alive    	1	still	0	natural 	1	n	0	0        	 	0.0	0	88.263790099998	88.3637837999268	0.0999936999287456
42137	100	23	stimuli/animals2/lemur/animal_lemur10.jpg        	1	1	1	animal_lemur10.jpg   	animals2 	1	lemur     	23	lemur10     	239	alive    	1	moves	1	natural 	1	n	0	0        	 	0.0	0	88.4137956999475	88.5138068000088	0.100011100061238
42287	100	24	stimuli/animals/cat/animal_cat02.jpg             	1	1	1	animal_cat02.jpg     	animals  	0	cat       	6	cat02       	61	alive    	1	moves	1	natural 	1	n	0	0        	 	0.0	0	88.5637965999777	88.6637909000274	0.0999943000497296
42437	100	25	stimuli/animals/eagle/animal_eagle04.jpg         	1	1	1	animal_eagle04.jpg   	animals  	0	eagle     	13	eagle04     	133	alive    	1	moves	1	natural 	1	n	1	0        	 	0.0	0	88.7138021999272	88.8137932999525	0.0999911000253633
42587	100	26	stimuli/animals/horse/animal_horse01.jpg         	1	1	1	animal_horse01.jpg   	animals  	0	horse     	20	horse01     	200	alive    	1	moves	1	natural 	1	n	0	0        	 	0.0	0	88.8638063999824	88.9637978000101	0.0999914000276476
42737	100	27	stimuli/plant2/clover/plant_clover06.jpg         	1	1	1	plant_clover06.jpg   	plant2   	7	clover    	9	clover06    	95	alive    	1	still	0	natural 	1	n	0	0        	 	0.0	0	89.0138082000194	89.1138003999367	0.0999921999173239
42887	100	28	stimuli/animals2/whale/animal_whale05.jpg        	1	1	1	animal_whale05.jpg   	animals2 	1	whale     	39	whale05     	394	alive    	1	moves	1	natural 	1	n	0	0        	 	0.0	0	89.1638104999438	89.2638078000164	0.0999973000725731
43037	100	29	stimuli/movNat/river/mn_river03.jpg              	1	1	1	mn_river03.jpg       	movNat   	3	river     	29	river03     	292	not_alive	0	moves	1	natural 	1	n	0	0        	 	0.0	0	89.3138154000044	89.4138288999675	0.100013499963097
43187	100	30	stimuli/plant2/moss/plant_moss07.jpg             	1	1	1	plant_moss07.jpg     	plant2   	7	moss      	25	moss07      	256	alive    	1	still	0	natural 	1	n	0	0        	 	0.0	0	89.46382179996	89.5638135999907	0.0999918000306934
43337	100	31	stimuli/movArt/helicopter/ma_helicopter01.jpg    	1	1	1	ma_helicopter01.jpg  	movArt   	2	helicopter	19	helicopter01	190	not_alive	0	moves	1	artefact	0	n	0	0        	 	0.0	0	89.6138270000229	89.7138167999219	0.0999897998990491
43487	100	32	stimuli/animals2/lemur/animal_lemur04.jpg        	1	1	1	animal_lemur04.jpg   	animals2 	1	lemur     	23	lemur04     	233	alive    	1	moves	1	natural 	1	n	0	0        	 	0.0	0	89.7638240000233	89.8638507999713	0.100026799947955
43637	100	33	stimuli/plant2/lemontree/plant_lemontree04.jpg   	1	1	1	plant_lemontree04.jpg	plant2   	7	lemontree 	22	lemontree04 	223	alive    	1	still	0	natural 	1	n	0	0        	 	0.0	0	89.9138604999753	90.0138529000105	0.0999924000352621
43787	100	34	stimuli/animals2/pigeon/animal_pigeon05.jpg      	1	1	1	animal_pigeon05.jpg  	animals2 	1	pigeon    	28	pigeon05    	284	alive    	1	moves	1	natural 	1	n	0	0        	 	0.0	0	90.0638622000115	90.1638419999508	0.0999797999393195
43937	100	35	stimuli/animals2/pigeon/animal_pigeon08.jpg      	1	1	1	animal_pigeon08.jpg  	animals2 	1	pigeon    	28	pigeon08    	287	alive    	1	moves	1	natural 	1	n	0	0        	 	0.0	0	90.2138661999488	90.3138615000062	0.0999953000573441
44088	100	36	stimuli/nonmovArt/mug/nma_mug08.jpg              	1	1	1	nma_mug08.jpg        	nonmovArt	4	mug       	26	mug08       	267	not_alive	0	still	0	artefact	0	n	0	0        	 	0.0	0	90.3638725000201	90.4638633999275	0.099990899907425
44238	100	37	stimuli/nonmovArt/bench/nma_bench02.jpg          	1	1	1	nma_bench02.jpg      	nonmovArt	4	bench     	1	bench02     	11	not_alive	0	still	0	artefact	0	n	0	0        	 	0.0	0	90.5138900999445	90.6138685999904	0.099978500045836
44388	100	38	stimuli/animals/eagle/animal_eagle07.jpg         	1	1	1	animal_eagle07.jpg   	animals  	0	eagle     	13	eagle07     	136	alive    	1	moves	1	natural 	1	n	0	0        	 	0.0	0	90.6638645000057	90.7638833000092	0.100018800003454
44538	100	39	stimuli/nonmovNat/sand/nmn_sand10.jpg            	1	1	1	nmn_sand10.jpg       	nonmovNat	5	sand      	31	sand10      	319	not_alive	0	still	0	natural 	1	n	0	0        	 	0.0	0	90.8138665999286	90.9138879999518	0.100021400023252
44688	100	40	stimuli/animals2/lemur/animal_lemur10.jpg        	1	1	1	animal_lemur10.jpg   	animals2 	1	lemur     	23	lemur10     	239	alive    	1	moves	1	natural 	1	n	0	0        	 	0.0	0	90.9638912000228	91.0638647000305	0.0999735000077635
44838	100	41	stimuli/nonmovNat/rock/nmn_rock05.jpg            	1	1	1	nmn_rock05.jpg       	nonmovNat	5	rock      	30	rock05      	304	not_alive	0	still	0	natural 	1	n	0	0        	 	0.0	0	91.1138779999455	91.2138728999998	0.0999949000542983
44988	100	42	stimuli/nonmovArt/headphones/nma_headphones08.jpg	1	1	1	nma_headphones08.jpg 	nonmovArt	4	headphones	18	headphones08	187	not_alive	0	still	0	artefact	0	n	0	0        	 	0.0	0	91.2638942999765	91.3638899999205	0.0999956999439746
45138	100	43	stimuli/movArt/car/ma_car04.jpg                  	1	1	1	ma_car04.jpg         	movArt   	2	car       	5	car04       	53	not_alive	0	moves	1	artefact	0	n	1	0        	 	0.0	0	91.4139004999306	91.5138945999788	0.0999941000482068
45288	100	44	stimuli/plant2/fern/plant_fern06.jpg             	1	1	1	plant_fern06.jpg     	plant2   	7	fern      	14	fern06      	145	alive    	1	still	0	natural 	1	n	0	0        	 	0.0	0	91.563890999998	91.6639001999283	0.100009199930355
45438	100	45	stimuli/plant2/palmtree/plant_palmtree08.jpg     	1	1	1	plant_palmtree08.jpg 	plant2   	7	palmtree  	27	palmtree08  	277	alive    	1	still	0	natural 	1	n	0	0        	 	0.0	0	91.7139188000001	91.8138992999448	0.0999804999446496
45588	100	46	stimuli/nonmovArt/clothespeg/nma_clothespeg08.jpg	1	1	1	nma_clothespeg08.jpg 	nonmovArt	4	clothespeg	8	clothespeg08	87	not_alive	0	still	0	artefact	0	n	0	1        	f	0.442177099990659	1	91.8639133999823	91.9638996999711	0.0999862999888137
45738	100	47	stimuli/animals/dolphin/animal_dolphin05.jpg     	1	1	1	animal_dolphin05.jpg 	animals  	0	dolphin   	12	dolphin05   	124	alive    	1	moves	1	natural 	1	n	0	0        	 	0.0	0	92.0139101999812	92.1139061999274	0.099995999946259
45888	100	48	stimuli/nonmovArt/headphones/nma_headphones02.jpg	1	1	1	nma_headphones02.jpg 	nonmovArt	4	headphones	18	headphones02	181	not_alive	0	still	0	artefact	0	n	0	0        	 	0.0	0	92.1639204999665	92.263913200004	0.0999927000375465
46038	100	49	stimuli/animals2/tiger/animal_tiger07.jpg        	1	1	1	animal_tiger07.jpg   	animals2 	1	tiger     	33	tiger07     	336	alive    	1	moves	1	natural 	1	n	0	0        	 	0.0	0	92.3139248000225	92.4139190999558	0.0999942999333143
46188	100	50	stimuli/movNat/hotspring/mn_hotspring05.jpg      	1	1	1	mn_hotspring05.jpg   	movNat   	3	hotspring 	21	hotspring05 	214	not_alive	0	moves	1	natural 	1	n	0	0        	 	0.0	0	92.4639123999514	92.5639044999844	0.0999921000329778
46338	100	51	stimuli/animals2/bee/animal_bee02.jpg            	1	1	1	animal_bee02.jpg     	animals2 	1	bee       	0	bee02       	1	alive    	1	moves	1	natural 	1	n	0	0        	 	0.0	0	92.6139304999961	92.7139255999355	0.0999950999394059
46488	100	52	stimuli/plant2/moss/plant_moss10.jpg             	1	1	1	plant_moss10.jpg     	plant2   	7	moss      	25	moss10      	259	alive    	1	still	0	natural 	1	n	0	0        	 	0.0	0	92.7639178999234	92.8639289999847	0.100011100061238
46638	100	53	stimuli/movNat/fire/mn_fire09.jpg                	1	1	1	mn_fire09.jpg        	movNat   	3	fire      	15	fire09      	158	not_alive	0	moves	1	natural 	1	n	0	0        	 	0.0	0	92.9139028999489	93.0139174999204	0.100014599971473
46788	100	54	stimuli/animals2/tiger/animal_tiger03.jpg        	1	1	1	animal_tiger03.jpg   	animals2 	1	tiger     	33	tiger03     	332	alive    	1	moves	1	natural 	1	n	0	0        	 	0.0	0	93.0639255000278	93.1639404000016	0.100014899973758
46938	100	55	stimuli/plant/flower/plant_flower07.jpg          	1	1	1	plant_flower07.jpg   	plant    	6	flower    	16	flower07    	166	alive    	1	still	0	natural 	1	n	0	0        	 	0.0	0	93.2139318999835	93.313932799967	0.10000089998357
47088	100	56	stimuli/animals/cat/animal_cat01.jpg             	1	1	1	animal_cat01.jpg     	animals  	0	cat       	6	cat01       	60	alive    	1	moves	1	natural 	1	n	0	0        	 	0.0	0	93.3639348000288	93.4639344000025	0.0999995999736711
47238	100	57	stimuli/animals/cat/animal_cat03.jpg             	1	1	1	animal_cat03.jpg     	animals  	0	cat       	6	cat03       	62	alive    	1	moves	1	natural 	1	n	0	0        	 	0.0	0	93.5139540999662	93.613932200009	0.0999781000427902
47388	100	58	stimuli/nonmovNat/cliff/nmn_cliff07.jpg          	1	1	1	nmn_cliff07.jpg      	nonmovNat	5	cliff     	7	cliff07     	76	not_alive	0	still	0	natural 	1	n	0	0        	 	0.0	0	93.6639583000215	93.7639535999624	0.0999952999409288
47538	100	59	stimuli/animals/dolphin/animal_dolphin08.jpg     	1	1	1	animal_dolphin08.jpg 	animals  	0	dolphin   	12	dolphin08   	127	alive    	1	moves	1	natural 	1	n	0	0        	 	0.0	0	93.8139860000229	93.9139549999964	0.0999689999734983
47688	100	60	stimuli/animals/dog/animal_dog02.jpg             	1	1	1	animal_dog02.jpg     	animals  	0	dog       	11	dog02       	111	alive    	1	moves	1	natural 	1	n	0	0        	 	0.0	0	93.9639523000224	94.0639500999823	0.099997799959965
47838	100	61	stimuli/nonmovArt/lock/nma_lock05.jpg            	1	1	1	nma_lock05.jpg       	nonmovArt	4	lock      	24	lock05      	244	not_alive	0	still	0	artefact	0	n	0	0        	 	0.0	0	94.1139799000229	94.2139818000142	0.100001899991184
47988	100	62	stimuli/movArt/boat/ma_boat10.jpg                	1	1	1	ma_boat10.jpg        	movArt   	2	boat      	2	boat10      	29	not_alive	0	moves	1	artefact	0	n	0	0        	 	0.0	0	94.2639739000006	94.3639516999247	0.0999777999240905
48138	100	63	stimuli/movNat/waves/mn_waves10.jpg              	1	1	1	mn_waves10.jpg       	movNat   	3	waves     	38	waves10     	389	not_alive	0	moves	1	natural 	1	n	0	0        	 	0.0	0	94.4139621999348	94.5139816999435	0.100019500008784
48288	100	64	stimuli/nonmovArt/bench/nma_bench02.jpg          	1	1	1	nma_bench02.jpg      	nonmovArt	4	bench     	1	bench02     	11	not_alive	0	still	0	artefact	0	n	0	0        	 	0.0	0	94.5639821999939	94.6639793999493	0.0999971999553964
48438	100	65	stimuli/movArt/bus/ma_bus08.jpg                  	1	1	1	ma_bus08.jpg         	movArt   	2	bus       	3	bus08       	37	not_alive	0	moves	1	artefact	0	n	0	0        	 	0.0	0	94.7139851999237	94.8139640999725	0.0999789000488818
48588	100	66	stimuli/plant/tree/plant_tree07.jpg              	1	1	1	plant_tree07.jpg     	plant    	6	tree      	35	tree07      	356	alive    	1	still	0	natural 	1	n	0	0        	 	0.0	0	94.8639885999728	94.9639844999183	0.0999958999454975
48738	100	67	stimuli/plant2/fern/plant_fern10.jpg             	1	1	1	plant_fern10.jpg     	plant2   	7	fern      	14	fern10      	149	alive    	1	still	0	natural 	1	n	1	0        	 	0.0	0	95.0139800999314	95.1139712999575	0.0999912000261247
48888	100	68	stimuli/animals2/whale/animal_whale07.jpg        	1	1	1	animal_whale07.jpg   	animals2 	1	whale     	39	whale07     	396	alive    	1	moves	1	natural 	1	n	0	0        	 	0.0	0	95.1639903000323	95.2639928000281	0.100002499995753
49038	100	69	stimuli/plant2/palmtree/plant_palmtree06.jpg     	1	1	1	plant_palmtree06.jpg 	plant2   	7	palmtree  	27	palmtree06  	275	alive    	1	still	0	natural 	1	n	0	1        	f	0.292206500074826	1	95.3139820999932	95.4140051000286	0.100023000035435
49188	100	70	stimuli/animals/horse/animal_horse03.jpg         	1	1	1	animal_horse03.jpg   	animals  	0	horse     	20	horse03     	202	alive    	1	moves	1	natural 	1	n	0	0        	 	0.0	0	95.4640067999717	95.5640007000184	0.0999939000466838
49338	100	71	stimuli/nonmovArt/clothespeg/nma_clothespeg10.jpg	1	1	1	nma_clothespeg10.jpg 	nonmovArt	4	clothespeg	8	clothespeg10	89	not_alive	0	still	0	artefact	0	n	0	0        	 	0.0	0	95.6139920999995	95.7139867999358	0.0999946999363601
49488	100	72	stimuli/animals2/pigeon/animal_pigeon06.jpg      	1	1	1	animal_pigeon06.jpg  	animals2 	1	pigeon    	28	pigeon06    	285	alive    	1	moves	1	natural 	1	n	0	0        	 	0.0	0	95.7640123999445	95.8639934000094	0.0999810000648722
49638	100	73	stimuli/nonmovNat/crystal/nmn_crystal02.jpg      	1	1	1	nmn_crystal02.jpg    	nonmovNat	5	crystal   	10	crystal02   	101	not_alive	0	still	0	natural 	1	n	0	0        	 	0.0	0	95.9140055000316	96.0140115999384	0.10000609990675
49788	100	74	stimuli/movArt/helicopter/ma_helicopter02.jpg    	1	1	1	ma_helicopter02.jpg  	movArt   	2	helicopter	19	helicopter02	191	not_alive	0	moves	1	artefact	0	n	0	0        	 	0.0	0	96.064043499995	96.1640161999967	0.0999727000016719
49938	100	75	stimuli/animals/dog/animal_dog02.jpg             	1	1	1	animal_dog02.jpg     	animals  	0	dog       	11	dog02       	111	alive    	1	moves	1	natural 	1	n	0	0        	 	0.0	0	96.214028300019	96.3140277999919	0.0999994999729097
50088	100	76	stimuli/plant/grass/plant_grass03.jpg            	1	1	1	plant_grass03.jpg    	plant    	6	grass     	17	grass03     	172	alive    	1	still	0	natural 	1	n	0	0        	 	0.0	0	96.3640291999327	96.4640071999747	0.0999780000420287
50238	100	77	stimuli/nonmovNat/sand/nmn_sand04.jpg            	1	1	1	nmn_sand04.jpg       	nonmovNat	5	sand      	31	sand04      	313	not_alive	0	still	0	natural 	1	n	0	0        	 	0.0	0	96.5140298999613	96.614026300027	0.0999964000657201
50388	100	78	stimuli/plant/vine/plant_vine08.jpg              	1	1	1	plant_vine08.jpg     	plant    	6	vine      	36	vine08      	367	alive    	1	still	0	natural 	1	n	0	0        	 	0.0	0	96.6640201000264	96.7640169999795	0.099996899953112
50538	100	79	stimuli/plant2/clover/plant_clover10.jpg         	1	1	1	plant_clover10.jpg   	plant2   	7	clover    	9	clover10    	99	alive    	1	still	0	natural 	1	n	0	0        	 	0.0	0	96.8140262999805	96.9140188000165	0.0999925000360236
55588	100	80	stimuli/nonmovNat/shell/nmn_shell02.jpg          	1	2	1	nmn_shell02.jpg      	nonmovNat	5	shell     	32	shell02     	321	not_alive	0	still	0	natural 	1	n	0	0        	 	0.0	0	101.86416769994	101.964142199955	0.099974500015378
55738	100	81	stimuli/movNat/waterfall/mn_waterfall03.jpg      	1	2	1	mn_waterfall03.jpg   	movNat   	3	waterfall 	37	waterfall03 	372	not_alive	0	moves	1	natural 	1	n	0	0        	 	0.0	0	102.014149799943	102.114145400003	0.0999956000596285
55888	100	82	stimuli/movArt/train/ma_train02.jpg              	1	2	1	ma_train02.jpg       	movArt   	2	train     	34	train02     	341	not_alive	0	moves	1	artefact	0	n	0	0        	 	0.0	0	102.164155900013	102.264147499925	0.0999915999127552
56038	100	83	stimuli/movNat/hotspring/mn_hotspring03.jpg      	1	2	1	mn_hotspring03.jpg   	movNat   	3	hotspring 	21	hotspring03 	212	not_alive	0	moves	1	natural 	1	n	0	0        	 	0.0	0	102.314157399931	102.41415289999	0.099995500058867
56188	100	84	stimuli/movNat/river/mn_river10.jpg              	1	2	1	mn_river10.jpg       	movNat   	3	river     	29	river10     	299	not_alive	0	moves	1	natural 	1	n	0	0        	 	0.0	0	102.464179100003	102.564156399923	0.0999772999202833
56338	100	85	stimuli/animals/dog/animal_dog10.jpg             	1	2	1	animal_dog10.jpg     	animals  	0	dog       	11	dog10       	119	alive    	1	moves	1	natural 	1	n	0	0        	 	0.0	0	102.614166699932	102.714169399929	0.100002699997276
56488	100	86	stimuli/animals/dolphin/animal_dolphin06.jpg     	1	2	1	animal_dolphin06.jpg 	animals  	0	dolphin   	12	dolphin06   	125	alive    	1	moves	1	natural 	1	n	0	0        	 	0.0	0	102.764171499992	102.864164400031	0.0999929000390694
56638	100	87	stimuli/nonmovNat/crystal/nmn_crystal05.jpg      	1	2	1	nmn_crystal05.jpg    	nonmovNat	5	crystal   	10	crystal05   	104	not_alive	0	still	0	natural 	1	n	0	0        	 	0.0	0	102.914175099926	103.014167799964	0.0999927000375465
56788	100	88	stimuli/animals2/bee/animal_bee09.jpg            	1	2	1	animal_bee09.jpg     	animals2 	1	bee       	0	bee09       	8	alive    	1	moves	1	natural 	1	n	0	0        	 	0.0	0	103.064176299958	103.164174199919	0.0999978999607265
56938	100	89	stimuli/movArt/helicopter/ma_helicopter09.jpg    	1	2	1	ma_helicopter09.jpg  	movArt   	2	helicopter	19	helicopter09	198	not_alive	0	moves	1	artefact	0	n	0	0        	 	0.0	0	103.214181500021	103.314174599946	0.0999930999241769
57088	100	90	stimuli/nonmovNat/shell/nmn_shell05.jpg          	1	2	1	nmn_shell05.jpg      	nonmovNat	5	shell     	32	shell05     	324	not_alive	0	still	0	natural 	1	n	0	0        	 	0.0	0	103.364186899969	103.464209800004	0.100022900034674
57238	100	91	stimuli/plant2/lemontree/plant_lemontree10.jpg   	1	2	1	plant_lemontree10.jpg	plant2   	7	lemontree 	22	lemontree10 	229	alive    	1	still	0	natural 	1	n	0	0        	 	0.0	0	103.514191900031	103.614183299942	0.0999913999112323
57388	100	92	stimuli/movNat/waterfall/mn_waterfall01.jpg      	1	2	1	mn_waterfall01.jpg   	movNat   	3	waterfall 	37	waterfall01 	370	not_alive	0	moves	1	natural 	1	n	0	0        	 	0.0	0	103.664194999961	103.7641879	0.0999929000390694
57538	100	93	stimuli/plant/tree/plant_tree05.jpg              	1	2	1	plant_tree05.jpg     	plant    	6	tree      	35	tree05      	354	alive    	1	still	0	natural 	1	n	0	0        	 	0.0	0	103.814216999919	103.914194099954	0.0999771000351757
57688	100	94	stimuli/plant2/clover/plant_clover06.jpg         	1	2	1	plant_clover06.jpg   	plant2   	7	clover    	9	clover06    	95	alive    	1	still	0	natural 	1	n	0	0        	 	0.0	0	103.964202299947	104.064211899997	0.100009600049816
57838	100	95	stimuli/nonmovArt/headphones/nma_headphones02.jpg	1	2	1	nma_headphones02.jpg 	nonmovArt	4	headphones	18	headphones02	181	not_alive	0	still	0	artefact	0	n	0	0        	 	0.0	0	104.114206300001	104.214227100019	0.100020800018683
57988	100	96	stimuli/plant2/moss/plant_moss01.jpg             	1	2	1	plant_moss01.jpg     	plant2   	7	moss      	25	moss01      	250	alive    	1	still	0	natural 	1	n	1	0        	 	0.0	0	104.264208899927	104.364223400014	0.100014500087127
58138	100	97	stimuli/nonmovArt/mug/nma_mug01.jpg              	1	2	1	nma_mug01.jpg        	nonmovArt	4	mug       	26	mug01       	260	not_alive	0	still	0	artefact	0	n	0	0        	 	0.0	0	104.414217600017	104.514208499924	0.099990899907425
58288	100	98	stimuli/plant2/fern/plant_fern01.jpg             	1	2	1	plant_fern01.jpg     	plant2   	7	fern      	14	fern01      	140	alive    	1	still	0	natural 	1	n	0	1        	f	0.391992400051095	1	104.564220499946	104.66421139997	0.0999909000238404
58438	100	99	stimuli/plant/grass/plant_grass06.jpg            	1	2	1	plant_grass06.jpg    	plant    	6	grass     	17	grass06     	175	alive    	1	still	0	natural 	1	n	0	0        	 	0.0	0	104.714220899972	104.81423020002	0.100009300047532
58588	100	100	stimuli/animals2/tiger/animal_tiger06.jpg        	1	2	1	animal_tiger06.jpg   	animals2 	1	tiger     	33	tiger06     	335	alive    	1	moves	1	natural 	1	n	0	0        	 	0.0	0	104.864224400022	104.964203499956	0.0999790999339894
58738	100	101	stimuli/movArt/car/ma_car09.jpg                  	1	2	1	ma_car09.jpg         	movArt   	2	car       	5	car09       	58	not_alive	0	moves	1	artefact	0	n	0	0        	 	0.0	0	105.014228899963	105.114223800018	0.0999949000542983
58888	100	102	stimuli/movNat/fire/mn_fire10.jpg                	1	2	1	mn_fire10.jpg        	movNat   	3	fire      	15	fire10      	159	not_alive	0	moves	1	natural 	1	n	0	0        	 	0.0	0	105.164233000018	105.264226299943	0.0999932999256998
59038	100	103	stimuli/nonmovNat/sand/nmn_sand04.jpg            	1	2	1	nmn_sand04.jpg       	nonmovNat	5	sand      	31	sand04      	313	not_alive	0	still	0	natural 	1	n	0	0        	 	0.0	0	105.314268599963	105.414230900002	0.0999623000388965
59188	100	104	stimuli/plant/cactus/plant_cactus08.jpg          	1	2	1	plant_cactus08.jpg   	plant    	6	cactus    	4	cactus08    	47	alive    	1	still	0	natural 	1	n	0	0        	 	0.0	0	105.464261699934	105.564242099994	0.0999804000603035
59338	100	105	stimuli/nonmovArt/bench/nma_bench06.jpg          	1	2	1	nma_bench06.jpg      	nonmovArt	4	bench     	1	bench06     	15	not_alive	0	still	0	artefact	0	n	0	0        	 	0.0	0	105.61426339997	105.714243100025	0.0999797000549734
59488	100	106	stimuli/nonmovNat/rock/nmn_rock09.jpg            	1	2	1	nmn_rock09.jpg       	nonmovNat	5	rock      	30	rock09      	308	not_alive	0	still	0	natural 	1	n	0	0        	 	0.0	0	105.764249900007	105.864244699944	0.0999947999371216
59638	100	107	stimuli/plant/grass/plant_grass09.jpg            	1	2	1	plant_grass09.jpg    	plant    	6	grass     	17	grass09     	178	alive    	1	still	0	natural 	1	n	0	0        	 	0.0	0	105.91426729993	106.014248599997	0.0999813000671566
59788	100	108	stimuli/movArt/train/ma_train01.jpg              	1	2	1	ma_train01.jpg       	movArt   	2	train     	34	train01     	340	not_alive	0	moves	1	artefact	0	n	0	0        	 	0.0	0	106.064302299987	106.164253099938	0.0999507999513298
59938	100	109	stimuli/movArt/bus/ma_bus10.jpg                  	1	2	1	ma_bus10.jpg         	movArt   	2	bus       	3	bus10       	39	not_alive	0	moves	1	artefact	0	n	0	0        	 	0.0	0	106.21425910003	106.314255099976	0.099995999946259
60088	100	110	stimuli/plant2/palmtree/plant_palmtree03.jpg     	1	2	1	plant_palmtree03.jpg 	plant2   	7	palmtree  	27	palmtree03  	272	alive    	1	still	0	natural 	1	n	0	0        	 	0.0	0	106.36426599999	106.464259799919	0.0999937999295071
60238	100	111	stimuli/nonmovNat/crystal/nmn_crystal09.jpg      	1	2	1	nmn_crystal09.jpg    	nonmovNat	5	crystal   	10	crystal09   	108	not_alive	0	still	0	natural 	1	n	0	0        	 	0.0	0	106.514267600025	106.614264599979	0.0999969999538735
60388	100	112	stimuli/movNat/fire/mn_fire09.jpg                	1	2	1	mn_fire09.jpg        	movNat   	3	fire      	15	fire09      	158	not_alive	0	moves	1	natural 	1	n	0	0        	 	0.0	0	106.664274099981	106.76427169994	0.0999975999584422
60538	100	113	stimuli/plant/vine/plant_vine09.jpg              	1	2	1	plant_vine09.jpg     	plant    	6	vine      	36	vine09      	368	alive    	1	still	0	natural 	1	n	0	0        	 	0.0	0	106.814286599983	106.914270399953	0.0999837999697775
60688	100	114	stimuli/animals2/bee/animal_bee02.jpg            	1	2	1	animal_bee02.jpg     	animals2 	1	bee       	0	bee02       	1	alive    	1	moves	1	natural 	1	n	0	0        	 	0.0	0	106.964282599976	107.064276700025	0.0999941000482068
60838	100	115	stimuli/animals2/whale/animal_whale08.jpg        	1	2	1	animal_whale08.jpg   	animals2 	1	whale     	39	whale08     	397	alive    	1	moves	1	natural 	1	n	0	0        	 	0.0	0	107.114284800016	107.21427789994	0.0999930999241769
60988	100	116	stimuli/movArt/boat/ma_boat08.jpg                	1	2	1	ma_boat08.jpg        	movArt   	2	boat      	2	boat08      	27	not_alive	0	moves	1	artefact	0	n	0	0        	 	0.0	0	107.264288999955	107.364281999995	0.0999930000398308
61138	100	117	stimuli/movArt/boat/ma_boat08.jpg                	1	2	1	ma_boat08.jpg        	movArt   	2	boat      	2	boat08      	27	not_alive	0	moves	1	artefact	0	n	1	0        	 	0.0	0	107.414294000017	107.514300299925	0.100006299908273
61288	100	118	stimuli/nonmovNat/shell/nmn_shell09.jpg          	1	2	1	nmn_shell09.jpg      	nonmovNat	5	shell     	32	shell09     	328	not_alive	0	still	0	natural 	1	n	0	0        	 	0.0	0	107.564295999939	107.664288799977	0.0999928000383079
61438	100	119	stimuli/plant2/lemontree/plant_lemontree07.jpg   	1	2	1	plant_lemontree07.jpg	plant2   	7	lemontree 	22	lemontree07 	226	alive    	1	still	0	natural 	1	n	0	1        	f	0.300196199910715	1	107.714301400003	107.814308999921	0.100007599918172
61588	100	120	stimuli/animals/cat/animal_cat06.jpg             	1	2	1	animal_cat06.jpg     	animals  	0	cat       	6	cat06       	65	alive    	1	moves	1	natural 	1	n	0	0        	 	0.0	0	107.864305499941	107.964319200022	0.100013700081035
61738	100	121	stimuli/nonmovNat/cliff/nmn_cliff05.jpg          	1	2	1	nmn_cliff05.jpg      	nonmovNat	5	cliff     	7	cliff05     	74	not_alive	0	still	0	natural 	1	n	0	0        	 	0.0	0	108.014308099984	108.114300900023	0.0999928000383079
61888	100	122	stimuli/animals2/bee/animal_bee01.jpg            	1	2	1	animal_bee01.jpg     	animals2 	1	bee       	0	bee01       	0	alive    	1	moves	1	natural 	1	n	0	0        	 	0.0	0	108.164311699918	108.264304299955	0.099992600036785
62038	100	123	stimuli/nonmovArt/mug/nma_mug03.jpg              	1	2	1	nma_mug03.jpg        	nonmovArt	4	mug       	26	mug03       	262	not_alive	0	still	0	artefact	0	n	0	0        	 	0.0	0	108.314314799965	108.414310200023	0.0999954000581056
62188	100	124	stimuli/movNat/fire/mn_fire06.jpg                	1	2	1	mn_fire06.jpg        	movNat   	3	fire      	15	fire06      	155	not_alive	0	moves	1	natural 	1	n	0	0        	 	0.0	0	108.464320899919	108.564313899958	0.0999930000398308
62338	100	125	stimuli/animals2/lemur/animal_lemur05.jpg        	1	2	1	animal_lemur05.jpg   	animals2 	1	lemur     	23	lemur05     	234	alive    	1	moves	1	natural 	1	n	0	0        	 	0.0	0	108.614322699956	108.714316600002	0.0999939000466838
62488	100	126	stimuli/nonmovNat/shell/nmn_shell01.jpg          	1	2	1	nmn_shell01.jpg      	nonmovNat	5	shell     	32	shell01     	320	not_alive	0	still	0	natural 	1	n	0	0        	 	0.0	0	108.76434340002	108.864323799964	0.0999803999438882
62638	100	127	stimuli/nonmovNat/crystal/nmn_crystal09.jpg      	1	2	1	nmn_crystal09.jpg    	nonmovNat	5	crystal   	10	crystal09   	108	not_alive	0	still	0	natural 	1	n	0	0        	 	0.0	0	108.914383700001	109.014326900011	0.099943200009875
62788	100	128	stimuli/plant2/moss/plant_moss08.jpg             	1	2	1	plant_moss08.jpg     	plant2   	7	moss      	25	moss08      	257	alive    	1	still	0	natural 	1	n	0	0        	 	0.0	0	109.064338700031	109.164332299959	0.0999935999279842
62938	100	129	stimuli/animals/cat/animal_cat04.jpg             	1	2	1	animal_cat04.jpg     	animals  	0	cat       	6	cat04       	63	alive    	1	moves	1	natural 	1	n	0	0        	 	0.0	0	109.214340099948	109.314332199981	0.0999921000329778
63088	100	130	stimuli/movNat/fire/mn_fire09.jpg                	1	2	1	mn_fire09.jpg        	movNat   	3	fire      	15	fire09      	158	not_alive	0	moves	1	natural 	1	n	0	0        	 	0.0	0	109.364357099985	109.464333700016	0.0999766000313684
63238	100	131	stimuli/movArt/boat/ma_boat07.jpg                	1	2	1	ma_boat07.jpg        	movArt   	2	boat      	2	boat07      	26	not_alive	0	moves	1	artefact	0	n	0	0        	 	0.0	0	109.514344200026	109.614340899978	0.0999966999515891
63388	100	132	stimuli/plant2/palmtree/plant_palmtree04.jpg     	1	2	1	plant_palmtree04.jpg 	plant2   	7	palmtree  	27	palmtree04  	273	alive    	1	still	0	natural 	1	n	0	0        	 	0.0	0	109.66434909997	109.764342900016	0.0999938000459224
63538	100	133	stimuli/plant/flower/plant_flower02.jpg          	1	2	1	plant_flower02.jpg   	plant    	6	flower    	16	flower02    	161	alive    	1	still	0	natural 	1	n	0	0        	 	0.0	0	109.814383600024	109.914349199971	0.099965599947609
63688	100	134	stimuli/plant/tree/plant_tree08.jpg              	1	2	1	plant_tree08.jpg     	plant    	6	tree      	35	tree08      	357	alive    	1	still	0	natural 	1	n	0	0        	 	0.0	0	109.964360999991	110.064353600028	0.099992600036785
63838	100	135	stimuli/movNat/river/mn_river08.jpg              	1	2	1	mn_river08.jpg       	movNat   	3	river     	29	river08     	297	not_alive	0	moves	1	natural 	1	n	0	0        	 	0.0	0	110.114362000022	110.214356499957	0.0999944999348372
63988	100	136	stimuli/plant2/fern/plant_fern02.jpg             	1	2	1	plant_fern02.jpg     	plant2   	7	fern      	14	fern02      	141	alive    	1	still	0	natural 	1	n	0	0        	 	0.0	0	110.264368599979	110.364379699924	0.100011099944822
64138	100	137	stimuli/plant/tree/plant_tree03.jpg              	1	2	1	plant_tree03.jpg     	plant    	6	tree      	35	tree03      	352	alive    	1	still	0	natural 	1	n	0	0        	 	0.0	0	110.414371000021	110.514365099953	0.0999940999317914
64288	100	138	stimuli/movArt/boat/ma_boat06.jpg                	1	2	1	ma_boat06.jpg        	movArt   	2	boat      	2	boat06      	25	not_alive	0	moves	1	artefact	0	n	0	0        	 	0.0	0	110.564374599955	110.664370200015	0.0999956000596285
64438	100	139	stimuli/nonmovArt/headphones/nma_headphones04.jpg	1	2	1	nma_headphones04.jpg 	nonmovArt	4	headphones	18	headphones04	183	not_alive	0	still	0	artefact	0	n	0	0        	 	0.0	0	110.714379000012	110.814385399921	0.100006399909034
64588	100	140	stimuli/animals/eagle/animal_eagle03.jpg         	1	2	1	animal_eagle03.jpg   	animals  	0	eagle     	13	eagle03     	132	alive    	1	moves	1	natural 	1	n	1	0        	 	0.0	0	110.864385399967	110.964355899952	0.09997049998492
64738	100	141	stimuli/animals/horse/animal_horse03.jpg         	1	2	1	animal_horse03.jpg   	animals  	0	horse     	20	horse03     	202	alive    	1	moves	1	natural 	1	n	0	0        	 	0.0	0	111.014386199997	111.114382799948	0.0999965999508277
64888	100	142	stimuli/animals2/lemur/animal_lemur03.jpg        	1	2	1	animal_lemur03.jpg   	animals2 	1	lemur     	23	lemur03     	232	alive    	1	moves	1	natural 	1	n	0	1        	f	0.392025699955411	1	111.164402900031	111.264383399975	0.0999804999446496
65038	100	143	stimuli/movNat/fire/mn_fire10.jpg                	1	2	1	mn_fire10.jpg        	movNat   	3	fire      	15	fire10      	159	not_alive	0	moves	1	natural 	1	n	0	0        	 	0.0	0	111.314396200003	111.414417300024	0.100021100020967
65188	100	144	stimuli/movNat/hotspring/mn_hotspring09.jpg      	1	2	1	mn_hotspring09.jpg   	movNat   	3	hotspring 	21	hotspring09 	218	not_alive	0	moves	1	natural 	1	n	0	0        	 	0.0	0	111.464412699919	111.564403999946	0.0999913000268862
65338	100	145	stimuli/nonmovArt/lock/nma_lock10.jpg            	1	2	1	nma_lock10.jpg       	nonmovArt	4	lock      	24	lock10      	249	not_alive	0	still	0	artefact	0	n	0	0        	 	0.0	0	111.614429499954	111.714424700011	0.0999952000565827
65488	100	146	stimuli/movNat/hotspring/mn_hotspring01.jpg      	1	2	1	mn_hotspring01.jpg   	movNat   	3	hotspring 	21	hotspring01 	210	not_alive	0	moves	1	natural 	1	n	0	0        	 	0.0	0	111.764434700017	111.864428899949	0.0999941999325529
65638	100	147	stimuli/movNat/waterfall/mn_waterfall07.jpg      	1	2	1	mn_waterfall07.jpg   	movNat   	3	waterfall 	37	waterfall07 	376	not_alive	0	moves	1	natural 	1	n	0	0        	 	0.0	0	111.91443939996	112.014425299945	0.0999858999857679
65788	100	148	stimuli/animals2/pigeon/animal_pigeon03.jpg      	1	2	1	animal_pigeon03.jpg  	animals2 	1	pigeon    	28	pigeon03    	282	alive    	1	moves	1	natural 	1	n	0	0        	 	0.0	0	112.064448299934	112.164429800003	0.0999815000686794
65938	100	149	stimuli/plant/grass/plant_grass06.jpg            	1	2	1	plant_grass06.jpg    	plant    	6	grass     	17	grass06     	175	alive    	1	still	0	natural 	1	n	0	0        	 	0.0	0	112.21444469993	112.314442500006	0.0999978000763804
66088	100	150	stimuli/movArt/car/ma_car09.jpg                  	1	2	1	ma_car09.jpg         	movArt   	2	car       	5	car09       	58	not_alive	0	moves	1	artefact	0	n	0	0        	 	0.0	0	112.364450099994	112.464450799976	0.100000699982047
66238	100	151	stimuli/animals2/whale/animal_whale09.jpg        	1	2	1	animal_whale09.jpg   	animals2 	1	whale     	39	whale09     	398	alive    	1	moves	1	natural 	1	n	0	0        	 	0.0	0	112.514455299941	112.614449199988	0.0999939000466838
66388	100	152	stimuli/nonmovNat/crystal/nmn_crystal03.jpg      	1	2	1	nmn_crystal03.jpg    	nonmovNat	5	crystal   	10	crystal03   	102	not_alive	0	still	0	natural 	1	n	0	0        	 	0.0	0	112.664461000008	112.764438799932	0.0999777999240905
66538	100	153	stimuli/animals/dog/animal_dog06.jpg             	1	2	1	animal_dog06.jpg     	animals  	0	dog       	11	dog06       	115	alive    	1	moves	1	natural 	1	n	0	0        	 	0.0	0	112.814437399968	112.914442299982	0.100004900014028
66688	100	154	stimuli/nonmovNat/cliff/nmn_cliff03.jpg          	1	2	1	nmn_cliff03.jpg      	nonmovNat	5	cliff     	7	cliff03     	72	not_alive	0	still	0	natural 	1	n	0	0        	 	0.0	0	112.964466699981	113.064445999917	0.0999792999355122
66838	100	155	stimuli/plant2/moss/plant_moss06.jpg             	1	2	1	plant_moss06.jpg     	plant2   	7	moss      	25	moss06      	255	alive    	1	still	0	natural 	1	n	0	0        	 	0.0	0	113.114459899953	113.214449699968	0.0999898000154644
66988	100	156	stimuli/animals/dolphin/animal_dolphin05.jpg     	1	2	1	animal_dolphin05.jpg 	animals  	0	dolphin   	12	dolphin05   	124	alive    	1	moves	1	natural 	1	n	0	0        	 	0.0	0	113.264461999992	113.364448099979	0.0999860999872908
67138	100	157	stimuli/animals2/whale/animal_whale07.jpg        	1	2	1	animal_whale07.jpg   	animals2 	1	whale     	39	whale07     	396	alive    	1	moves	1	natural 	1	n	0	0        	 	0.0	0	113.414455499966	113.514451400028	0.0999959000619128
67288	100	158	stimuli/movArt/bus/ma_bus08.jpg                  	1	2	1	ma_bus08.jpg         	movArt   	2	bus       	3	bus08       	37	not_alive	0	moves	1	artefact	0	n	0	0        	 	0.0	0	113.564459500019	113.664454599959	0.0999950999394059
67438	100	159	stimuli/animals/dog/animal_dog06.jpg             	1	2	1	animal_dog06.jpg     	animals  	0	dog       	11	dog06       	115	alive    	1	moves	1	natural 	1	n	0	0        	 	0.0	0	113.714464599965	113.814469099976	0.100004500010982
72572	100	160	stimuli/animals/dolphin/animal_dolphin02.jpg     	1	3	1	animal_dolphin02.jpg 	animals  	0	dolphin   	12	dolphin02   	121	alive    	1	moves	1	natural 	1	n	0	0        	 	0.0	0	118.847937199986	118.947920499952	0.0999832999659702
72721	100	161	stimuli/nonmovNat/sand/nmn_sand01.jpg            	1	3	1	nmn_sand01.jpg       	nonmovNat	5	sand      	31	sand01      	310	not_alive	0	still	0	natural 	1	n	0	0        	 	0.0	0	118.997931699967	119.097923699999	0.0999920000322163
72872	100	162	stimuli/animals/horse/animal_horse09.jpg         	1	3	1	animal_horse09.jpg   	animals  	0	horse     	20	horse09     	208	alive    	1	moves	1	natural 	1	n	0	0        	 	0.0	0	119.147933500004	119.247930499958	0.0999969999538735
73022	100	163	stimuli/movNat/hotspring/mn_hotspring09.jpg      	1	3	1	mn_hotspring09.jpg   	movNat   	3	hotspring 	21	hotspring09 	218	not_alive	0	moves	1	natural 	1	n	0	0        	 	0.0	0	119.297937999945	119.397935900022	0.0999979000771418
73172	100	164	stimuli/animals2/bee/animal_bee07.jpg            	1	3	1	animal_bee07.jpg     	animals2 	1	bee       	0	bee07       	6	alive    	1	moves	1	natural 	1	n	0	0        	 	0.0	0	119.447942800005	119.547935199924	0.0999923999188468
73322	100	165	stimuli/plant2/fern/plant_fern04.jpg             	1	3	1	plant_fern04.jpg     	plant2   	7	fern      	14	fern04      	143	alive    	1	still	0	natural 	1	n	0	0        	 	0.0	0	119.597946299938	119.697940699989	0.0999944000504911
73472	100	166	stimuli/plant/cactus/plant_cactus07.jpg          	1	3	1	plant_cactus07.jpg   	plant    	6	cactus    	4	cactus07    	46	alive    	1	still	0	natural 	1	n	0	0        	 	0.0	0	119.74796529999	119.847959399922	0.0999940999317914
73622	100	167	stimuli/movArt/car/ma_car02.jpg                  	1	3	1	ma_car02.jpg         	movArt   	2	car       	5	car02       	51	not_alive	0	moves	1	artefact	0	n	0	0        	 	0.0	0	119.897964100004	119.997950499994	0.0999863999895752
73772	100	168	stimuli/plant/cactus/plant_cactus08.jpg          	1	3	1	plant_cactus08.jpg   	plant    	6	cactus    	4	cactus08    	47	alive    	1	still	0	natural 	1	n	0	0        	 	0.0	0	120.047957999981	120.147951700026	0.099993700045161
73922	100	169	stimuli/plant/vine/plant_vine03.jpg              	1	3	1	plant_vine03.jpg     	plant    	6	vine      	36	vine03      	362	alive    	1	still	0	natural 	1	n	0	0        	 	0.0	0	120.19798019994	120.297955399961	0.0999752000207081
74072	100	170	stimuli/nonmovNat/crystal/nmn_crystal05.jpg      	1	3	1	nmn_crystal05.jpg    	nonmovNat	5	crystal   	10	crystal05   	104	not_alive	0	still	0	natural 	1	n	0	0        	 	0.0	0	120.347968799993	120.447974800016	0.100006000022404
74222	100	171	stimuli/animals/dog/animal_dog08.jpg             	1	3	1	animal_dog08.jpg     	animals  	0	dog       	11	dog08       	117	alive    	1	moves	1	natural 	1	n	0	0        	 	0.0	0	120.497970000026	120.597962999949	0.0999929999234155
74372	100	172	stimuli/plant/flower/plant_flower10.jpg          	1	3	1	plant_flower10.jpg   	plant    	6	flower    	16	flower10    	169	alive    	1	still	0	natural 	1	n	0	0        	 	0.0	0	120.647973899962	120.747967200004	0.0999933000421152
74522	100	173	stimuli/nonmovArt/lock/nma_lock08.jpg            	1	3	1	nma_lock08.jpg       	nonmovArt	4	lock      	24	lock08      	247	not_alive	0	still	0	artefact	0	n	0	0        	 	0.0	0	120.797979800031	120.897977399989	0.0999975999584422
74672	100	174	stimuli/movArt/train/ma_train07.jpg              	1	3	1	ma_train07.jpg       	movArt   	2	train     	34	train07     	346	not_alive	0	moves	1	artefact	0	n	0	0        	 	0.0	0	120.947981299949	121.047994400025	0.100013100076467
74822	100	175	stimuli/nonmovNat/sand/nmn_sand03.jpg            	1	3	1	nmn_sand03.jpg       	nonmovNat	5	sand      	31	sand03      	312	not_alive	0	still	0	natural 	1	n	0	0        	 	0.0	0	121.097985300003	121.19797749992	0.0999921999173239
74972	100	176	stimuli/nonmovArt/headphones/nma_headphones04.jpg	1	3	1	nma_headphones04.jpg 	nonmovArt	4	headphones	18	headphones04	183	not_alive	0	still	0	artefact	0	n	0	0        	 	0.0	0	121.247987299925	121.347985	0.0999977000756189
75122	100	177	stimuli/movArt/train/ma_train10.jpg              	1	3	1	ma_train10.jpg       	movArt   	2	train     	34	train10     	349	not_alive	0	moves	1	artefact	0	n	0	0        	 	0.0	0	121.397992299986	121.497987399925	0.0999950999394059
75272	100	178	stimuli/plant2/lemontree/plant_lemontree05.jpg   	1	3	1	plant_lemontree05.jpg	plant2   	7	lemontree 	22	lemontree05 	224	alive    	1	still	0	natural 	1	n	0	0        	 	0.0	0	121.547998199938	121.647990999976	0.0999928000383079
75422	100	179	stimuli/movNat/waves/mn_waves09.jpg              	1	3	1	mn_waves09.jpg       	movNat   	3	waves     	38	waves09     	388	not_alive	0	moves	1	natural 	1	n	0	0        	 	0.0	0	121.69800199999	121.798013899941	0.100011899950914
75572	100	180	stimuli/animals/eagle/animal_eagle01.jpg         	1	3	1	animal_eagle01.jpg   	animals  	0	eagle     	13	eagle01     	130	alive    	1	moves	1	natural 	1	n	0	0        	 	0.0	0	121.848003700026	121.94799799996	0.0999942999333143
75722	100	181	stimuli/plant/grass/plant_grass01.jpg            	1	3	1	plant_grass01.jpg    	plant    	6	grass     	17	grass01     	170	alive    	1	still	0	natural 	1	n	0	0        	 	0.0	0	121.998023999971	122.098003600026	0.0999796000542119
75872	100	182	stimuli/nonmovArt/mug/nma_mug07.jpg              	1	3	1	nma_mug07.jpg        	nonmovArt	4	mug       	26	mug07       	266	not_alive	0	still	0	artefact	0	n	0	0        	 	0.0	0	122.148014599923	122.248007999966	0.0999934000428766
76022	100	183	stimuli/movNat/river/mn_river08.jpg              	1	3	1	mn_river08.jpg       	movNat   	3	river     	29	river08     	297	not_alive	0	moves	1	natural 	1	n	0	0        	 	0.0	0	122.298016899964	122.398029699922	0.100012799957767
76172	100	184	stimuli/plant/tree/plant_tree02.jpg              	1	3	1	plant_tree02.jpg     	plant    	6	tree      	35	tree02      	351	alive    	1	still	0	natural 	1	n	0	0        	 	0.0	0	122.448023499921	122.548016999965	0.099993500043638
76322	100	185	stimuli/nonmovArt/clothespeg/nma_clothespeg04.jpg	1	3	1	nma_clothespeg04.jpg 	nonmovArt	4	clothespeg	8	clothespeg04	83	not_alive	0	still	0	artefact	0	n	0	0        	 	0.0	0	122.598024999956	122.698017499992	0.0999925000360236
76472	100	186	stimuli/plant2/moss/plant_moss05.jpg             	1	3	1	plant_moss05.jpg     	plant2   	7	moss      	25	moss05      	254	alive    	1	still	0	natural 	1	n	0	0        	 	0.0	0	122.748028900009	122.848022199934	0.0999932999256998
76622	100	187	stimuli/animals2/whale/animal_whale01.jpg        	1	3	1	animal_whale01.jpg   	animals2 	1	whale     	39	whale01     	390	alive    	1	moves	1	natural 	1	n	0	0        	 	0.0	0	122.898039099993	122.998050799943	0.100011699949391
76772	100	188	stimuli/nonmovArt/bench/nma_bench07.jpg          	1	3	1	nma_bench07.jpg      	nonmovArt	4	bench     	1	bench07     	16	not_alive	0	still	0	artefact	0	n	0	0        	 	0.0	0	123.048038400011	123.148044899921	0.100006499909796
76922	100	189	stimuli/nonmovNat/rock/nmn_rock07.jpg            	1	3	1	nmn_rock07.jpg       	nonmovNat	5	rock      	30	rock07      	306	not_alive	0	still	0	natural 	1	n	0	0        	 	0.0	0	123.198049099999	123.298035199987	0.0999860999872908
77072	100	190	stimuli/plant/vine/plant_vine03.jpg              	1	3	1	plant_vine03.jpg     	plant    	6	vine      	36	vine03      	362	alive    	1	still	0	natural 	1	n	0	0        	 	0.0	0	123.348045899998	123.448038199916	0.0999922999180853
77222	100	191	stimuli/nonmovArt/lock/nma_lock10.jpg            	1	3	1	nma_lock10.jpg       	nonmovArt	4	lock      	24	lock10      	249	not_alive	0	still	0	artefact	0	n	0	0        	 	0.0	0	123.498047599918	123.598042899976	0.0999953000573441
77372	100	192	stimuli/animals2/pigeon/animal_pigeon04.jpg      	1	3	1	animal_pigeon04.jpg  	animals2 	1	pigeon    	28	pigeon04    	283	alive    	1	moves	1	natural 	1	n	0	0        	 	0.0	0	123.648053099983	123.748046000022	0.0999929000390694
77522	100	193	stimuli/nonmovArt/mug/nma_mug05.jpg              	1	3	1	nma_mug05.jpg        	nonmovArt	4	mug       	26	mug05       	264	not_alive	0	still	0	artefact	0	n	0	0        	 	0.0	0	123.798058399931	123.89805660001	0.0999982000794262
77672	100	194	stimuli/movArt/car/ma_car06.jpg                  	1	3	1	ma_car06.jpg         	movArt   	2	car       	5	car06       	55	not_alive	0	moves	1	artefact	0	n	0	0        	 	0.0	0	123.948083600029	124.048055200023	0.099971599993296
77822	100	195	stimuli/movArt/helicopter/ma_helicopter07.jpg    	1	3	1	ma_helicopter07.jpg  	movArt   	2	helicopter	19	helicopter07	196	not_alive	0	moves	1	artefact	0	n	0	0        	 	0.0	0	124.098064300022	124.198056999943	0.0999926999211311
77972	100	196	stimuli/plant2/clover/plant_clover07.jpg         	1	3	1	plant_clover07.jpg   	plant2   	7	clover    	9	clover07    	96	alive    	1	still	0	natural 	1	n	0	0        	 	0.0	0	124.248069799971	124.348064700025	0.0999949000542983
78122	100	197	stimuli/movNat/waves/mn_waves04.jpg              	1	3	1	mn_waves04.jpg       	movNat   	3	waves     	38	waves04     	383	not_alive	0	moves	1	natural 	1	n	0	0        	 	0.0	0	124.398074300028	124.498063599924	0.0999892998952419
78272	100	198	stimuli/movNat/waves/mn_waves05.jpg              	1	3	1	mn_waves05.jpg       	movNat   	3	waves     	38	waves05     	384	not_alive	0	moves	1	natural 	1	n	0	0        	 	0.0	0	124.548075699946	124.648072000011	0.0999963000649586
78422	100	199	stimuli/plant2/clover/plant_clover07.jpg         	1	3	1	plant_clover07.jpg   	plant2   	7	clover    	9	clover07    	96	alive    	1	still	0	natural 	1	n	0	0        	 	0.0	0	124.698081800016	124.798072899925	0.0999910999089479
78572	100	200	stimuli/plant2/palmtree/plant_palmtree02.jpg     	1	3	1	plant_palmtree02.jpg 	plant2   	7	palmtree  	27	palmtree02  	271	alive    	1	still	0	natural 	1	n	0	0        	 	0.0	0	124.848084899946	124.948078999994	0.0999941000482068
78722	100	201	stimuli/nonmovNat/rock/nmn_rock08.jpg            	1	3	1	nmn_rock08.jpg       	nonmovNat	5	rock      	30	rock08      	307	not_alive	0	still	0	natural 	1	n	1	0        	 	0.0	0	124.998088599998	125.098098799936	0.100010199937969
78872	100	202	stimuli/movArt/helicopter/ma_helicopter10.jpg    	1	3	1	ma_helicopter10.jpg  	movArt   	2	helicopter	19	helicopter10	199	not_alive	0	moves	1	artefact	0	n	0	0        	 	0.0	0	125.148091599927	125.24808499997	0.0999934000428766
79022	100	203	stimuli/animals2/pigeon/animal_pigeon03.jpg      	1	3	1	animal_pigeon03.jpg  	animals2 	1	pigeon    	28	pigeon03    	282	alive    	1	moves	1	natural 	1	n	0	1        	f	0.309913099976256	1	125.298109899974	125.398091799929	0.0999818999553099
79172	100	204	stimuli/nonmovNat/shell/nmn_shell03.jpg          	1	3	1	nmn_shell03.jpg      	nonmovNat	5	shell     	32	shell03     	322	not_alive	0	still	0	natural 	1	n	0	0        	 	0.0	0	125.448135099956	125.548093899968	0.0999588000122458
79322	100	205	stimuli/movNat/river/mn_river03.jpg              	1	3	1	mn_river03.jpg       	movNat   	3	river     	29	river03     	292	not_alive	0	moves	1	natural 	1	n	0	0        	 	0.0	0	125.59810589999	125.698097200016	0.0999913000268862
79472	100	206	stimuli/plant/grass/plant_grass07.jpg            	1	3	1	plant_grass07.jpg    	plant    	6	grass     	17	grass07     	176	alive    	1	still	0	natural 	1	n	1	0        	 	0.0	0	125.748107800027	125.848103899974	0.0999960999470204
79622	100	207	stimuli/plant2/clover/plant_clover08.jpg         	1	3	1	plant_clover08.jpg   	plant2   	7	clover    	9	clover08    	97	alive    	1	still	0	natural 	1	n	0	0        	 	0.0	0	125.89811509999	125.998107100022	0.0999920000322163
79772	100	208	stimuli/movNat/waterfall/mn_waterfall06.jpg      	1	3	1	mn_waterfall06.jpg   	movNat   	3	waterfall 	37	waterfall06 	375	not_alive	0	moves	1	natural 	1	n	0	0        	 	0.0	0	126.048116500024	126.148110299953	0.0999937999295071
79922	100	209	stimuli/animals2/tiger/animal_tiger04.jpg        	1	3	1	animal_tiger04.jpg   	animals2 	1	tiger     	33	tiger04     	333	alive    	1	moves	1	natural 	1	n	0	1        	f	0.442190899979323	1	126.198132899939	126.2981134	0.099980500061065
80072	100	210	stimuli/animals/cat/animal_cat06.jpg             	1	3	1	animal_cat06.jpg     	animals  	0	cat       	6	cat06       	65	alive    	1	moves	1	natural 	1	n	0	0        	 	0.0	0	126.348124200013	126.44813299994	0.100008799927309
80222	100	211	stimuli/nonmovNat/rock/nmn_rock02.jpg            	1	3	1	nmn_rock02.jpg       	nonmovNat	5	rock      	30	rock02      	301	not_alive	0	still	0	natural 	1	n	0	0        	 	0.0	0	126.498126999941	126.59812129999	0.0999943000497296
80372	100	212	stimuli/animals/eagle/animal_eagle07.jpg         	1	3	1	animal_eagle07.jpg   	animals  	0	eagle     	13	eagle07     	136	alive    	1	moves	1	natural 	1	n	0	0        	 	0.0	0	126.648132700007	126.748124499922	0.0999917999142781
80522	100	213	stimuli/animals2/tiger/animal_tiger10.jpg        	1	3	1	animal_tiger10.jpg   	animals2 	1	tiger     	33	tiger10     	339	alive    	1	moves	1	natural 	1	n	0	0        	 	0.0	0	126.798134899931	126.898134000017	0.0999991000862792
80672	100	214	stimuli/movArt/helicopter/ma_helicopter10.jpg    	1	3	1	ma_helicopter10.jpg  	movArt   	2	helicopter	19	helicopter10	199	not_alive	0	moves	1	artefact	0	n	0	0        	 	0.0	0	126.948139499989	127.048134299926	0.0999947999371216
80822	100	215	stimuli/movArt/train/ma_train01.jpg              	1	3	1	ma_train01.jpg       	movArt   	2	train     	34	train01     	340	not_alive	0	moves	1	artefact	0	n	0	0        	 	0.0	0	127.098143499927	127.198137599975	0.0999941000482068
80972	100	216	stimuli/nonmovArt/bench/nma_bench01.jpg          	1	3	1	nma_bench01.jpg      	nonmovArt	4	bench     	1	bench01     	10	not_alive	0	still	0	artefact	0	n	0	0        	 	0.0	0	127.248146399972	127.348142899922	0.0999964999500662
81122	100	217	stimuli/animals/dolphin/animal_dolphin07.jpg     	1	3	1	animal_dolphin07.jpg 	animals  	0	dolphin   	12	dolphin07   	126	alive    	1	moves	1	natural 	1	n	0	0        	 	0.0	0	127.398150500027	127.498145699967	0.0999951999401674
81272	100	218	stimuli/movArt/bus/ma_bus03.jpg                  	1	3	1	ma_bus03.jpg         	movArt   	2	bus       	3	bus03       	32	not_alive	0	moves	1	artefact	0	n	0	0        	 	0.0	0	127.548153499956	127.648147700005	0.0999942000489682
81422	100	219	stimuli/plant/cactus/plant_cactus10.jpg          	1	3	1	plant_cactus10.jpg   	plant    	6	cactus    	4	cactus10    	49	alive    	1	still	0	natural 	1	n	0	0        	 	0.0	0	127.698168499977	127.798168199952	0.0999996999744326
81572	100	220	stimuli/nonmovArt/headphones/nma_headphones04.jpg	1	3	1	nma_headphones04.jpg 	nonmovArt	4	headphones	18	headphones04	183	not_alive	0	still	0	artefact	0	n	1	0        	 	0.0	0	127.848168299999	127.948157000006	0.0999887000070885
81722	100	221	stimuli/movArt/boat/ma_boat02.jpg                	1	3	1	ma_boat02.jpg        	movArt   	2	boat      	2	boat02      	21	not_alive	0	moves	1	artefact	0	n	0	1        	f	0.254824499948882	1	127.998168900027	128.098162199953	0.0999932999256998
81872	100	222	stimuli/nonmovArt/clothespeg/nma_clothespeg10.jpg	1	3	1	nma_clothespeg10.jpg 	nonmovArt	4	clothespeg	8	clothespeg10	89	not_alive	0	still	0	artefact	0	n	0	0        	 	0.0	0	128.148170899949	128.248167700018	0.0999968000687659
82022	100	223	stimuli/plant2/lemontree/plant_lemontree07.jpg   	1	3	1	plant_lemontree07.jpg	plant2   	7	lemontree 	22	lemontree07 	226	alive    	1	still	0	natural 	1	n	0	0        	 	0.0	0	128.298175200005	128.398170499946	0.0999952999409288
82172	100	224	stimuli/nonmovArt/clothespeg/nma_clothespeg02.jpg	1	3	1	nma_clothespeg02.jpg 	nonmovArt	4	clothespeg	8	clothespeg02	81	not_alive	0	still	0	artefact	0	n	0	0        	 	0.0	0	128.448180599953	128.548174800002	0.0999942000489682
82322	100	225	stimuli/nonmovNat/sand/nmn_sand09.jpg            	1	3	1	nmn_sand09.jpg       	nonmovNat	5	sand      	31	sand09      	318	not_alive	0	still	0	natural 	1	n	0	0        	 	0.0	0	128.598183900001	128.69817759993	0.0999936999287456
82472	100	226	stimuli/nonmovNat/cliff/nmn_cliff10.jpg          	1	3	1	nmn_cliff10.jpg      	nonmovNat	5	cliff     	7	cliff10     	79	not_alive	0	still	0	natural 	1	n	0	0        	 	0.0	0	128.748186499928	128.848187800031	0.100001300103031
82622	100	227	stimuli/movNat/waterfall/mn_waterfall07.jpg      	1	3	1	mn_waterfall07.jpg   	movNat   	3	waterfall 	37	waterfall07 	376	not_alive	0	moves	1	natural 	1	n	0	0        	 	0.0	0	128.89819550002	128.998202299932	0.10000679991208
82772	100	228	stimuli/animals2/tiger/animal_tiger02.jpg        	1	3	1	animal_tiger02.jpg   	animals2 	1	tiger     	33	tiger02     	331	alive    	1	moves	1	natural 	1	n	0	0        	 	0.0	0	129.04819459992	129.148189099971	0.0999945000512525
82922	100	229	stimuli/nonmovArt/bench/nma_bench09.jpg          	1	3	1	nma_bench09.jpg      	nonmovArt	4	bench     	1	bench09     	18	not_alive	0	still	0	artefact	0	n	0	0        	 	0.0	0	129.198213299969	129.298190700007	0.09997740003746
83072	100	230	stimuli/nonmovNat/shell/nmn_shell06.jpg          	1	3	1	nmn_shell06.jpg      	nonmovNat	5	shell     	32	shell06     	325	not_alive	0	still	0	natural 	1	n	0	0        	 	0.0	0	129.34820379992	129.448196499958	0.0999927000375465
83222	100	231	stimuli/plant2/lemontree/plant_lemontree01.jpg   	1	3	1	plant_lemontree01.jpg	plant2   	7	lemontree 	22	lemontree01 	220	alive    	1	still	0	natural 	1	n	0	0        	 	0.0	0	129.498206299962	129.598201200017	0.0999949000542983
83372	100	232	stimuli/plant/vine/plant_vine06.jpg              	1	3	1	plant_vine06.jpg     	plant    	6	vine      	36	vine06      	365	alive    	1	still	0	natural 	1	n	0	0        	 	0.0	0	129.648211300024	129.748203699943	0.0999923999188468
83522	100	233	stimuli/movArt/bus/ma_bus10.jpg                  	1	3	1	ma_bus10.jpg         	movArt   	2	bus       	3	bus10       	39	not_alive	0	moves	1	artefact	0	n	0	0        	 	0.0	0	129.798217199976	129.89821289992	0.0999956999439746
83672	100	234	stimuli/plant2/fern/plant_fern02.jpg             	1	3	1	plant_fern02.jpg     	plant2   	7	fern      	14	fern02      	141	alive    	1	still	0	natural 	1	n	0	0        	 	0.0	0	129.948218300007	130.048213499947	0.0999951999401674
83822	100	235	stimuli/animals2/lemur/animal_lemur05.jpg        	1	3	1	animal_lemur05.jpg   	animals2 	1	lemur     	23	lemur05     	234	alive    	1	moves	1	natural 	1	n	0	0        	 	0.0	0	130.098224099958	130.198217900004	0.0999938000459224
83972	100	236	stimuli/plant2/palmtree/plant_palmtree02.jpg     	1	3	1	plant_palmtree02.jpg 	plant2   	7	palmtree  	27	palmtree02  	271	alive    	1	still	0	natural 	1	n	0	0        	 	0.0	0	130.248226299998	130.348239499959	0.100013199960813
84122	100	237	stimuli/plant/flower/plant_flower09.jpg          	1	3	1	plant_flower09.jpg   	plant    	6	flower    	16	flower09    	168	alive    	1	still	0	natural 	1	n	0	0        	 	0.0	0	130.398249499965	130.498223299975	0.0999738000100478
84272	100	238	stimuli/animals/horse/animal_horse07.jpg         	1	3	1	animal_horse07.jpg   	animals  	0	horse     	20	horse07     	206	alive    	1	moves	1	natural 	1	n	0	0        	 	0.0	0	130.548233399983	130.648227000027	0.0999936000443995
84422	100	239	stimuli/animals2/bee/animal_bee06.jpg            	1	3	1	animal_bee06.jpg     	animals2 	1	bee       	0	bee06       	5	alive    	1	moves	1	natural 	1	n	0	0        	 	0.0	0	130.698259699973	130.798231199966	0.0999714999925345
94022	100	240	stimuli/plant2/lemontree/plant_lemontree06.jpg   	1	4	1	plant_lemontree06.jpg	plant2   	7	lemontree 	22	lemontree06 	225	alive    	1	still	0	natural 	1	n	0	0        	 	0.0	0	140.298498800024	140.398489299929	0.0999904999043792
94172	100	241	stimuli/plant2/palmtree/plant_palmtree10.jpg     	1	4	1	plant_palmtree10.jpg 	plant2   	7	palmtree  	27	palmtree10  	279	alive    	1	still	0	natural 	1	n	0	0        	 	0.0	0	140.448496700032	140.548488499946	0.0999917999142781
94322	100	242	stimuli/animals2/tiger/animal_tiger02.jpg        	1	4	1	animal_tiger02.jpg   	animals2 	1	tiger     	33	tiger02     	331	alive    	1	moves	1	natural 	1	n	0	0        	 	0.0	0	140.598499699961	140.69849390001	0.0999942000489682
94472	100	243	stimuli/movArt/helicopter/ma_helicopter05.jpg    	1	4	1	ma_helicopter05.jpg  	movArt   	2	helicopter	19	helicopter05	194	not_alive	0	moves	1	artefact	0	n	0	0        	 	0.0	0	140.748502000002	140.848510399926	0.100008399924263
94622	100	244	stimuli/plant2/fern/plant_fern10.jpg             	1	4	1	plant_fern10.jpg     	plant2   	7	fern      	14	fern10      	149	alive    	1	still	0	natural 	1	n	0	0        	 	0.0	0	140.898507199949	140.998501199996	0.0999940000474453
94772	100	245	stimuli/plant/grass/plant_grass02.jpg            	1	4	1	plant_grass02.jpg    	plant    	6	grass     	17	grass02     	171	alive    	1	still	0	natural 	1	n	0	0        	 	0.0	0	141.048512600013	141.148504299927	0.0999916999135166
94922	100	246	stimuli/movArt/helicopter/ma_helicopter06.jpg    	1	4	1	ma_helicopter06.jpg  	movArt   	2	helicopter	19	helicopter06	195	not_alive	0	moves	1	artefact	0	n	0	0        	 	0.0	0	141.198519299971	141.298507299973	0.0999880000017583
95072	100	247	stimuli/plant2/clover/plant_clover03.jpg         	1	4	1	plant_clover03.jpg   	plant2   	7	clover    	9	clover03    	92	alive    	1	still	0	natural 	1	n	0	0        	 	0.0	0	141.348519599996	141.448512799921	0.0999931999249384
95222	100	248	stimuli/movArt/helicopter/ma_helicopter03.jpg    	1	4	1	ma_helicopter03.jpg  	movArt   	2	helicopter	19	helicopter03	192	not_alive	0	moves	1	artefact	0	n	0	0        	 	0.0	0	141.498522899929	141.598514199955	0.0999913000268862
95372	100	249	stimuli/animals/dog/animal_dog07.jpg             	1	4	1	animal_dog07.jpg     	animals  	0	dog       	11	dog07       	116	alive    	1	moves	1	natural 	1	n	0	0        	 	0.0	0	141.648526199977	141.748521299916	0.0999950999394059
95522	100	250	stimuli/nonmovArt/clothespeg/nma_clothespeg06.jpg	1	4	1	nma_clothespeg06.jpg 	nonmovArt	4	clothespeg	8	clothespeg06	85	not_alive	0	still	0	artefact	0	n	0	0        	 	0.0	0	141.798530000029	141.898524099961	0.0999940999317914
95672	100	251	stimuli/animals/dog/animal_dog08.jpg             	1	4	1	animal_dog08.jpg     	animals  	0	dog       	11	dog08       	117	alive    	1	moves	1	natural 	1	n	0	0        	 	0.0	0	141.948538700002	142.048528700019	0.0999900000169873
95822	100	252	stimuli/animals2/pigeon/animal_pigeon05.jpg      	1	4	1	animal_pigeon05.jpg  	animals2 	1	pigeon    	28	pigeon05    	284	alive    	1	moves	1	natural 	1	n	0	0        	 	0.0	0	142.09854149993	142.198548099957	0.100006600026973
95972	100	253	stimuli/movNat/river/mn_river03.jpg              	1	4	1	mn_river03.jpg       	movNat   	3	river     	29	river03     	292	not_alive	0	moves	1	natural 	1	n	0	0        	 	0.0	0	142.248542699963	142.348553100019	0.100010400055908
96122	100	254	stimuli/animals2/lemur/animal_lemur02.jpg        	1	4	1	animal_lemur02.jpg   	animals2 	1	lemur     	23	lemur02     	231	alive    	1	moves	1	natural 	1	n	0	0        	 	0.0	0	142.398545400007	142.498541899957	0.0999964999500662
96272	100	255	stimuli/nonmovNat/rock/nmn_rock05.jpg            	1	4	1	nmn_rock05.jpg       	nonmovNat	5	rock      	30	rock05      	304	not_alive	0	still	0	natural 	1	n	0	0        	 	0.0	0	142.548549599946	142.64854580001	0.0999962000641972
96422	100	256	stimuli/nonmovArt/mug/nma_mug04.jpg              	1	4	1	nma_mug04.jpg        	nonmovArt	4	mug       	26	mug04       	263	not_alive	0	still	0	artefact	0	n	0	0        	 	0.0	0	142.69855500001	142.798547699931	0.0999926999211311
96572	100	257	stimuli/nonmovNat/shell/nmn_shell02.jpg          	1	4	1	nmn_shell02.jpg      	nonmovNat	5	shell     	32	shell02     	321	not_alive	0	still	0	natural 	1	n	0	0        	 	0.0	0	142.848557499936	142.948553199996	0.0999957000603899
96722	100	258	stimuli/nonmovArt/lock/nma_lock02.jpg            	1	4	1	nma_lock02.jpg       	nonmovArt	4	lock      	24	lock02      	241	not_alive	0	still	0	artefact	0	n	0	0        	 	0.0	0	142.998561699991	143.098557399935	0.0999956999439746
96872	100	259	stimuli/animals2/lemur/animal_lemur09.jpg        	1	4	1	animal_lemur09.jpg   	animals2 	1	lemur     	23	lemur09     	238	alive    	1	moves	1	natural 	1	n	0	0        	 	0.0	0	143.148565399926	143.248559299973	0.0999939000466838
97022	100	260	stimuli/movNat/fire/mn_fire07.jpg                	1	4	1	mn_fire07.jpg        	movNat   	3	fire      	15	fire07      	156	not_alive	0	moves	1	natural 	1	n	0	0        	 	0.0	0	143.298588300007	143.398562200018	0.0999739000108093
97172	100	261	stimuli/movNat/waterfall/mn_waterfall10.jpg      	1	4	1	mn_waterfall10.jpg   	movNat   	3	waterfall 	37	waterfall10 	379	not_alive	0	moves	1	natural 	1	n	0	0        	 	0.0	0	143.448574799928	143.548568299972	0.099993500043638
97322	100	262	stimuli/animals/eagle/animal_eagle04.jpg         	1	4	1	animal_eagle04.jpg   	animals  	0	eagle     	13	eagle04     	133	alive    	1	moves	1	natural 	1	n	0	0        	 	0.0	0	143.598578999983	143.698571400018	0.0999924000352621
97472	100	263	stimuli/animals2/lemur/animal_lemur06.jpg        	1	4	1	animal_lemur06.jpg   	animals2 	1	lemur     	23	lemur06     	235	alive    	1	moves	1	natural 	1	n	0	0        	 	0.0	0	143.748582200031	143.84857459995	0.0999923999188468
97622	100	264	stimuli/animals2/pigeon/animal_pigeon10.jpg      	1	4	1	animal_pigeon10.jpg  	animals2 	1	pigeon    	28	pigeon10    	289	alive    	1	moves	1	natural 	1	n	1	0        	 	0.0	0	143.898584099952	143.998604299966	0.100020200014114
97772	100	265	stimuli/nonmovNat/crystal/nmn_crystal04.jpg      	1	4	1	nmn_crystal04.jpg    	nonmovNat	5	crystal   	10	crystal04   	103	not_alive	0	still	0	natural 	1	n	0	0        	 	0.0	0	144.048601899995	144.148584899958	0.0999829999636859
97922	100	266	stimuli/nonmovNat/cliff/nmn_cliff04.jpg          	1	4	1	nmn_cliff04.jpg      	nonmovNat	5	cliff     	7	cliff04     	73	not_alive	0	still	0	natural 	1	n	0	1        	f	0.292196599999443	1	144.198594799964	144.298588100006	0.0999933000421152
98072	100	267	stimuli/plant2/clover/plant_clover02.jpg         	1	4	1	plant_clover02.jpg   	plant2   	7	clover    	9	clover02    	91	alive    	1	still	0	natural 	1	n	0	0        	 	0.0	0	144.348615800031	144.448592899949	0.0999770999187604
98222	100	268	stimuli/plant2/palmtree/plant_palmtree08.jpg     	1	4	1	plant_palmtree08.jpg 	plant2   	7	palmtree  	27	palmtree08  	277	alive    	1	still	0	natural 	1	n	0	0        	 	0.0	0	144.498600399937	144.598594599986	0.0999942000489682
98372	100	269	stimuli/animals/cat/animal_cat01.jpg             	1	4	1	animal_cat01.jpg     	animals  	0	cat       	6	cat01       	60	alive    	1	moves	1	natural 	1	n	0	0        	 	0.0	0	144.648606100003	144.748599999934	0.0999938999302685
98522	100	270	stimuli/animals/cat/animal_cat07.jpg             	1	4	1	animal_cat07.jpg     	animals  	0	cat       	6	cat07       	66	alive    	1	moves	1	natural 	1	n	0	0        	 	0.0	0	144.798610399943	144.898601599969	0.0999912000261247
98672	100	271	stimuli/movArt/bus/ma_bus04.jpg                  	1	4	1	ma_bus04.jpg         	movArt   	2	bus       	3	bus04       	33	not_alive	0	moves	1	artefact	0	n	0	0        	 	0.0	0	144.948614699999	145.048609199934	0.0999944999348372
98822	100	272	stimuli/movNat/waves/mn_waves04.jpg              	1	4	1	mn_waves04.jpg       	movNat   	3	waves     	38	waves04     	383	not_alive	0	moves	1	natural 	1	n	0	0        	 	0.0	0	145.098616299918	145.198610699968	0.0999944000504911
98972	100	273	stimuli/nonmovNat/crystal/nmn_crystal06.jpg      	1	4	1	nmn_crystal06.jpg    	nonmovNat	5	crystal   	10	crystal06   	105	not_alive	0	still	0	natural 	1	n	0	0        	 	0.0	0	145.248621999985	145.348614100018	0.0999921000329778
99122	100	274	stimuli/plant/cactus/plant_cactus05.jpg          	1	4	1	plant_cactus05.jpg   	plant    	6	cactus    	4	cactus05    	44	alive    	1	still	0	natural 	1	n	0	0        	 	0.0	0	145.39862579992	145.49863799999	0.100012200069614
99272	100	275	stimuli/animals/eagle/animal_eagle05.jpg         	1	4	1	animal_eagle05.jpg   	animals  	0	eagle     	13	eagle05     	134	alive    	1	moves	1	natural 	1	n	0	0        	 	0.0	0	145.548630699981	145.648626899929	0.0999961999477819
99422	100	276	stimuli/animals2/whale/animal_whale03.jpg        	1	4	1	animal_whale03.jpg   	animals2 	1	whale     	39	whale03     	392	alive    	1	moves	1	natural 	1	n	0	0        	 	0.0	0	145.698638499947	145.798645499977	0.100007000030018
99572	100	277	stimuli/nonmovArt/clothespeg/nma_clothespeg05.jpg	1	4	1	nma_clothespeg05.jpg 	nonmovArt	4	clothespeg	8	clothespeg05	84	not_alive	0	still	0	artefact	0	n	0	0        	 	0.0	0	145.848640399985	145.948636499932	0.0999960999470204
99722	100	278	stimuli/movNat/river/mn_river05.jpg              	1	4	1	mn_river05.jpg       	movNat   	3	river     	29	river05     	294	not_alive	0	moves	1	natural 	1	n	0	0        	 	0.0	0	145.998647799948	146.098640799988	0.0999930000398308
99872	100	279	stimuli/movArt/car/ma_car05.jpg                  	1	4	1	ma_car05.jpg         	movArt   	2	car       	5	car05       	54	not_alive	0	moves	1	artefact	0	n	1	0        	 	0.0	0	146.148652500007	146.248647799948	0.0999952999409288
100022	100	280	stimuli/plant/grass/plant_grass07.jpg            	1	4	1	plant_grass07.jpg    	plant    	6	grass     	17	grass07     	176	alive    	1	still	0	natural 	1	n	0	0        	 	0.0	0	146.298657099949	146.398648599978	0.0999915000284091
100172	100	281	stimuli/animals2/tiger/animal_tiger02.jpg        	1	4	1	animal_tiger02.jpg   	animals2 	1	tiger     	33	tiger02     	331	alive    	1	moves	1	natural 	1	n	0	1        	f	0.391992099932395	1	146.44865809998	146.548654899932	0.0999967999523506
100322	100	282	stimuli/nonmovArt/headphones/nma_headphones10.jpg	1	4	1	nma_headphones10.jpg 	nonmovArt	4	headphones	18	headphones10	189	not_alive	0	still	0	artefact	0	n	0	0        	 	0.0	0	146.598674600013	146.698657399975	0.099982799962163
100472	100	283	stimuli/movArt/train/ma_train05.jpg              	1	4	1	ma_train05.jpg       	movArt   	2	train     	34	train05     	344	not_alive	0	moves	1	artefact	0	n	0	0        	 	0.0	0	146.74866729998	146.84866369993	0.0999963999493048
100622	100	284	stimuli/plant2/moss/plant_moss06.jpg             	1	4	1	plant_moss06.jpg     	plant2   	7	moss      	25	moss06      	255	alive    	1	still	0	natural 	1	n	0	0        	 	0.0	0	146.898694599979	146.998666399973	0.0999717999948189
100772	100	285	stimuli/movNat/waterfall/mn_waterfall05.jpg      	1	4	1	mn_waterfall05.jpg   	movNat   	3	waterfall 	37	waterfall05 	374	not_alive	0	moves	1	natural 	1	n	0	0        	 	0.0	0	147.048677399987	147.148668600013	0.0999912000261247
100922	100	286	stimuli/plant/flower/plant_flower06.jpg          	1	4	1	plant_flower06.jpg   	plant    	6	flower    	16	flower06    	165	alive    	1	still	0	natural 	1	n	0	0        	 	0.0	0	147.198677700013	147.298671799945	0.0999940999317914
101072	100	287	stimuli/plant/flower/plant_flower07.jpg          	1	4	1	plant_flower07.jpg   	plant    	6	flower    	16	flower07    	166	alive    	1	still	0	natural 	1	n	0	0        	 	0.0	0	147.348683299962	147.448677800014	0.0999945000512525
101222	100	288	stimuli/plant/tree/plant_tree01.jpg              	1	4	1	plant_tree01.jpg     	plant    	6	tree      	35	tree01      	350	alive    	1	still	0	natural 	1	n	0	0        	 	0.0	0	147.498687600018	147.598679999937	0.0999923999188468
101372	100	289	stimuli/plant/vine/plant_vine02.jpg              	1	4	1	plant_vine02.jpg     	plant    	6	vine      	36	vine02      	361	alive    	1	still	0	natural 	1	n	0	0        	 	0.0	0	147.648707699962	147.748682799982	0.0999751000199467
101522	100	290	stimuli/plant/tree/plant_tree07.jpg              	1	4	1	plant_tree07.jpg     	plant    	6	tree      	35	tree07      	356	alive    	1	still	0	natural 	1	n	1	0        	 	0.0	0	147.798692599987	147.898685500026	0.0999929000390694
101672	100	291	stimuli/nonmovNat/cliff/nmn_cliff07.jpg          	1	4	1	nmn_cliff07.jpg      	nonmovNat	5	cliff     	7	cliff07     	76	not_alive	0	still	0	natural 	1	n	0	0        	 	0.0	0	147.948707700009	148.048691599979	0.0999838999705389
101822	100	292	stimuli/animals2/whale/animal_whale04.jpg        	1	4	1	animal_whale04.jpg   	animals2 	1	whale     	39	whale04     	393	alive    	1	moves	1	natural 	1	n	0	1        	f	0.292181800003164	1	148.098711599945	148.198699399945	0.0999878000002354
101972	100	293	stimuli/plant2/palmtree/plant_palmtree09.jpg     	1	4	1	plant_palmtree09.jpg 	plant2   	7	palmtree  	27	palmtree09  	278	alive    	1	still	0	natural 	1	n	0	0        	 	0.0	0	148.248707099934	148.348703800002	0.0999967000680044
102122	100	294	stimuli/nonmovNat/rock/nmn_rock04.jpg            	1	4	1	nmn_rock04.jpg       	nonmovNat	5	rock      	30	rock04      	303	not_alive	0	still	0	natural 	1	n	0	0        	 	0.0	0	148.398723799968	148.498704700032	0.0999809000641108
102272	100	295	stimuli/movArt/boat/ma_boat02.jpg                	1	4	1	ma_boat02.jpg        	movArt   	2	boat      	2	boat02      	21	not_alive	0	moves	1	artefact	0	n	0	0        	 	0.0	0	148.548715399927	148.648707299959	0.0999919000314549
102422	100	296	stimuli/plant/vine/plant_vine05.jpg              	1	4	1	plant_vine05.jpg     	plant    	6	vine      	36	vine05      	364	alive    	1	still	0	natural 	1	n	0	0        	 	0.0	0	148.698717299965	148.798711700016	0.0999944000504911
102572	100	297	stimuli/plant2/clover/plant_clover10.jpg         	1	4	1	plant_clover10.jpg   	plant2   	7	clover    	9	clover10    	99	alive    	1	still	0	natural 	1	n	0	0        	 	0.0	0	148.848722400027	148.948714299942	0.0999918999150395
102722	100	298	stimuli/plant/cactus/plant_cactus04.jpg          	1	4	1	plant_cactus04.jpg   	plant    	6	cactus    	4	cactus04    	43	alive    	1	still	0	natural 	1	n	0	0        	 	0.0	0	148.998728199978	149.098720200011	0.0999920000322163
102872	100	299	stimuli/nonmovArt/lock/nma_lock01.jpg            	1	4	1	nma_lock01.jpg       	nonmovArt	4	lock      	24	lock01      	240	not_alive	0	still	0	artefact	0	n	0	0        	 	0.0	0	149.148730400018	149.248723799945	0.0999933999264613
103022	100	300	stimuli/animals2/tiger/animal_tiger10.jpg        	1	4	1	animal_tiger10.jpg   	animals2 	1	tiger     	33	tiger10     	339	alive    	1	moves	1	natural 	1	n	0	0        	 	0.0	0	149.298735699966	149.398728100001	0.0999924000352621
103172	100	301	stimuli/movArt/car/ma_car01.jpg                  	1	4	1	ma_car01.jpg         	movArt   	2	car       	5	car01       	50	not_alive	0	moves	1	artefact	0	n	0	0        	 	0.0	0	149.448739600019	149.548731799936	0.0999921999173239
103322	100	302	stimuli/animals/horse/animal_horse05.jpg         	1	4	1	animal_horse05.jpg   	animals  	0	horse     	20	horse05     	204	alive    	1	moves	1	natural 	1	n	1	0        	 	0.0	0	149.598745099967	149.69873579999	0.0999907000223175
103472	100	303	stimuli/plant/grass/plant_grass08.jpg            	1	4	1	plant_grass08.jpg    	plant    	6	grass     	17	grass08     	177	alive    	1	still	0	natural 	1	n	0	0        	 	0.0	0	149.748744499986	149.848740699934	0.0999961999477819
103622	100	304	stimuli/movNat/fire/mn_fire07.jpg                	1	4	1	mn_fire07.jpg        	movNat   	3	fire      	15	fire07      	156	not_alive	0	moves	1	natural 	1	n	0	0        	 	0.0	0	149.898750399938	149.998744499986	0.0999941000482068
103772	100	305	stimuli/plant/vine/plant_vine06.jpg              	1	4	1	plant_vine06.jpg     	plant    	6	vine      	36	vine06      	365	alive    	1	still	0	natural 	1	n	0	0        	 	0.0	0	150.0487708	150.148747699917	0.0999768999172375
103922	100	306	stimuli/plant2/lemontree/plant_lemontree09.jpg   	1	4	1	plant_lemontree09.jpg	plant2   	7	lemontree 	22	lemontree09 	228	alive    	1	still	0	natural 	1	n	0	1        	f	0.592204899992794	1	150.198758999933	150.298751199967	0.0999922000337392
104072	100	307	stimuli/plant2/fern/plant_fern09.jpg             	1	4	1	plant_fern09.jpg     	plant2   	7	fern      	14	fern09      	148	alive    	1	still	0	natural 	1	n	0	0        	 	0.0	0	150.348762999987	150.448763599969	0.100000599981286
104222	100	308	stimuli/animals2/bee/animal_bee01.jpg            	1	4	1	animal_bee01.jpg     	animals2 	1	bee       	0	bee01       	0	alive    	1	moves	1	natural 	1	n	0	0        	 	0.0	0	150.498764400021	150.598759699962	0.0999952999409288
104372	100	309	stimuli/plant/flower/plant_flower01.jpg          	1	4	1	plant_flower01.jpg   	plant    	6	flower    	16	flower01    	160	alive    	1	still	0	natural 	1	n	0	0        	 	0.0	0	150.648768899962	150.748763400014	0.0999945000512525
104522	100	310	stimuli/nonmovArt/mug/nma_mug09.jpg              	1	4	1	nma_mug09.jpg        	nonmovArt	4	mug       	26	mug09       	268	not_alive	0	still	0	artefact	0	n	0	0        	 	0.0	0	150.798772000009	150.898768399958	0.0999963999493048
104672	100	311	stimuli/nonmovNat/shell/nmn_shell09.jpg          	1	4	1	nmn_shell09.jpg      	nonmovNat	5	shell     	32	shell09     	328	not_alive	0	still	0	natural 	1	n	0	0        	 	0.0	0	150.948777299956	151.048774900031	0.0999976000748575
104822	100	312	stimuli/nonmovNat/shell/nmn_shell10.jpg          	1	4	1	nmn_shell10.jpg      	nonmovNat	5	shell     	32	shell10     	329	not_alive	0	still	0	natural 	1	n	0	0        	 	0.0	0	151.098783200025	151.198778599966	0.0999953999416903
104972	100	313	stimuli/nonmovNat/crystal/nmn_crystal04.jpg      	1	4	1	nmn_crystal04.jpg    	nonmovNat	5	crystal   	10	crystal04   	103	not_alive	0	still	0	natural 	1	n	0	0        	 	0.0	0	151.24878559995	151.348806299968	0.100020700017922
105122	100	314	stimuli/movArt/bus/ma_bus03.jpg                  	1	4	1	ma_bus03.jpg         	movArt   	2	bus       	3	bus03       	32	not_alive	0	moves	1	artefact	0	n	0	0        	 	0.0	0	151.398788499995	151.498784199939	0.0999956999439746
105272	100	315	stimuli/animals/dolphin/animal_dolphin09.jpg     	1	4	1	animal_dolphin09.jpg 	animals  	0	dolphin   	12	dolphin09   	128	alive    	1	moves	1	natural 	1	n	0	0        	 	0.0	0	151.548794199945	151.648790100007	0.0999959000619128
105422	100	316	stimuli/animals/eagle/animal_eagle02.jpg         	1	4	1	animal_eagle02.jpg   	animals  	0	eagle     	13	eagle02     	131	alive    	1	moves	1	natural 	1	n	0	0        	 	0.0	0	151.69881099998	151.798789600027	0.0999786000465974
105572	100	317	stimuli/nonmovArt/bench/nma_bench08.jpg          	1	4	1	nma_bench08.jpg      	nonmovArt	4	bench     	1	bench08     	17	not_alive	0	still	0	artefact	0	n	0	0        	 	0.0	0	151.848800999927	151.948796899989	0.0999959000619128
105722	100	318	stimuli/nonmovArt/headphones/nma_headphones03.jpg	1	4	1	nma_headphones03.jpg 	nonmovArt	4	headphones	18	headphones03	182	not_alive	0	still	0	artefact	0	n	0	0        	 	0.0	0	151.998804499977	152.098800699925	0.0999961999477819
105872	100	319	stimuli/animals2/bee/animal_bee01.jpg            	1	4	1	animal_bee01.jpg     	animals2 	1	bee       	0	bee01       	0	alive    	1	moves	1	natural 	1	n	0	0        	 	0.0	0	152.148815399967	152.248815799947	0.100000399979763
117923	100	320	stimuli/movArt/train/ma_train05.jpg              	1	5	1	ma_train05.jpg       	movArt   	2	train     	34	train05     	344	not_alive	0	moves	1	artefact	0	n	0	0        	 	0.0	0	164.199130499968	164.299121499993	0.0999910000246018
118073	100	321	stimuli/plant2/lemontree/plant_lemontree01.jpg   	1	5	1	plant_lemontree01.jpg	plant2   	7	lemontree 	22	lemontree01 	220	alive    	1	still	0	natural 	1	n	0	0        	 	0.0	0	164.349130899995	164.449124299921	0.0999933999264613
118223	100	322	stimuli/plant/tree/plant_tree10.jpg              	1	5	1	plant_tree10.jpg     	plant    	6	tree      	35	tree10      	359	alive    	1	still	0	natural 	1	n	0	0        	 	0.0	0	164.499146700022	164.599129599985	0.0999828999629244
118373	100	323	stimuli/movNat/waterfall/mn_waterfall05.jpg      	1	5	1	mn_waterfall05.jpg   	movNat   	3	waterfall 	37	waterfall05 	374	not_alive	0	moves	1	natural 	1	n	0	0        	 	0.0	0	164.649138699984	164.749132000026	0.0999933000421152
118523	100	324	stimuli/animals/horse/animal_horse10.jpg         	1	5	1	animal_horse10.jpg   	animals  	0	horse     	20	horse10     	209	alive    	1	moves	1	natural 	1	n	0	0        	 	0.0	0	164.799141800031	164.89917879994	0.100036999909207
118673	100	325	stimuli/nonmovArt/bench/nma_bench03.jpg          	1	5	1	nma_bench03.jpg      	nonmovArt	4	bench     	1	bench03     	12	not_alive	0	still	0	artefact	0	n	0	0        	 	0.0	0	164.949159899959	165.049139100011	0.0999792000511661
118823	100	326	stimuli/plant2/moss/plant_moss05.jpg             	1	5	1	plant_moss05.jpg     	plant2   	7	moss      	25	moss05      	254	alive    	1	still	0	natural 	1	n	0	1        	f	0.0	0	165.099151799921	165.199145699968	0.0999939000466838
118973	100	327	stimuli/plant2/moss/plant_moss05.jpg             	1	5	1	plant_moss05.jpg     	plant2   	7	moss      	25	moss05      	254	alive    	1	still	0	natural 	1	n	0	0        	 	0.0	0	165.249156099977	165.349159399979	0.100003300001845
119123	100	328	stimuli/animals2/pigeon/animal_pigeon08.jpg      	1	5	1	animal_pigeon08.jpg  	animals2 	1	pigeon    	28	pigeon08    	287	alive    	1	moves	1	natural 	1	n	0	0        	 	0.0	0	165.399158900022	165.499173399992	0.100014499970712
119273	100	329	stimuli/nonmovArt/lock/nma_lock01.jpg            	1	5	1	nma_lock01.jpg       	nonmovArt	4	lock      	24	lock01      	240	not_alive	0	still	0	artefact	0	n	0	0        	 	0.0	0	165.549164499971	165.649173900019	0.100009400048293
119423	100	330	stimuli/nonmovArt/bench/nma_bench09.jpg          	1	5	1	nma_bench09.jpg      	nonmovArt	4	bench     	1	bench09     	18	not_alive	0	still	0	artefact	0	n	0	0        	 	0.0	0	165.699166100007	165.79915909993	0.0999929999234155
119573	100	331	stimuli/movArt/train/ma_train04.jpg              	1	5	1	ma_train04.jpg       	movArt   	2	train     	34	train04     	343	not_alive	0	moves	1	artefact	0	n	0	0        	 	0.0	0	165.849170099944	165.949164199992	0.0999941000482068
119723	100	332	stimuli/animals/dolphin/animal_dolphin06.jpg     	1	5	1	animal_dolphin06.jpg 	animals  	0	dolphin   	12	dolphin06   	125	alive    	1	moves	1	natural 	1	n	0	0        	 	0.0	0	165.999177600024	166.099168399931	0.0999907999066636
119873	100	333	stimuli/movArt/boat/ma_boat09.jpg                	1	5	1	ma_boat09.jpg        	movArt   	2	boat      	2	boat09      	28	not_alive	0	moves	1	artefact	0	n	0	0        	 	0.0	0	166.149191899924	166.24918049993	0.099988600006327
120023	100	334	stimuli/animals/horse/animal_horse07.jpg         	1	5	1	animal_horse07.jpg   	animals  	0	horse     	20	horse07     	206	alive    	1	moves	1	natural 	1	n	0	0        	 	0.0	0	166.2991836	166.399187500007	0.100003900006413
120173	100	335	stimuli/animals2/whale/animal_whale05.jpg        	1	5	1	animal_whale05.jpg   	animals2 	1	whale     	39	whale05     	394	alive    	1	moves	1	natural 	1	n	0	0        	 	0.0	0	166.449185899925	166.549181899987	0.0999960000626743
120323	100	336	stimuli/movArt/bus/ma_bus04.jpg                  	1	5	1	ma_bus04.jpg         	movArt   	2	bus       	3	bus04       	33	not_alive	0	moves	1	artefact	0	n	0	0        	 	0.0	0	166.599189399974	166.69918320002	0.0999938000459224
120473	100	337	stimuli/nonmovNat/sand/nmn_sand05.jpg            	1	5	1	nmn_sand05.jpg       	nonmovNat	5	sand      	31	sand05      	314	not_alive	0	still	0	natural 	1	n	0	0        	 	0.0	0	166.749201899976	166.849188399967	0.0999864999903366
120623	100	338	stimuli/nonmovNat/sand/nmn_sand06.jpg            	1	5	1	nmn_sand06.jpg       	nonmovNat	5	sand      	31	sand06      	315	not_alive	0	still	0	natural 	1	n	0	0        	 	0.0	0	166.899197199964	166.999190800008	0.0999936000443995
120773	100	339	stimuli/animals/dolphin/animal_dolphin03.jpg     	1	5	1	animal_dolphin03.jpg 	animals  	0	dolphin   	12	dolphin03   	122	alive    	1	moves	1	natural 	1	n	0	0        	 	0.0	0	167.049200100009	167.149200899992	0.100000799982809
120923	100	340	stimuli/movNat/waves/mn_waves01.jpg              	1	5	1	mn_waves01.jpg       	movNat   	3	waves     	38	waves01     	380	not_alive	0	moves	1	natural 	1	n	0	0        	 	0.0	0	167.199205699959	167.299199300003	0.0999936000443995
121073	100	341	stimuli/nonmovNat/cliff/nmn_cliff01.jpg          	1	5	1	nmn_cliff01.jpg      	nonmovNat	5	cliff     	7	cliff01     	70	not_alive	0	still	0	natural 	1	n	0	0        	 	0.0	0	167.3492234	167.44920319994	0.0999797999393195
121223	100	342	stimuli/animals2/bee/animal_bee08.jpg            	1	5	1	animal_bee08.jpg     	animals2 	1	bee       	0	bee08       	7	alive    	1	moves	1	natural 	1	n	0	0        	 	0.0	0	167.499238500022	167.599207699997	0.0999691999750212
121373	100	343	stimuli/movArt/boat/ma_boat01.jpg                	1	5	1	ma_boat01.jpg        	movArt   	2	boat      	2	boat01      	20	not_alive	0	moves	1	artefact	0	n	0	0        	 	0.0	0	167.649216899998	167.7492203	0.100003400002606
121523	100	344	stimuli/movNat/waves/mn_waves07.jpg              	1	5	1	mn_waves07.jpg       	movNat   	3	waves     	38	waves07     	386	not_alive	0	moves	1	natural 	1	n	0	0        	 	0.0	0	167.799232600024	167.899214699981	0.0999820999568328
121673	100	345	stimuli/movNat/hotspring/mn_hotspring03.jpg      	1	5	1	mn_hotspring03.jpg   	movNat   	3	hotspring 	21	hotspring03 	212	not_alive	0	moves	1	natural 	1	n	0	0        	 	0.0	0	167.949228800018	168.049219099921	0.0999902999028564
121823	100	346	stimuli/animals/dog/animal_dog03.jpg             	1	5	1	animal_dog03.jpg     	animals  	0	dog       	11	dog03       	112	alive    	1	moves	1	natural 	1	n	0	0        	 	0.0	0	168.09924260003	168.199218199938	0.0999755999073386
121973	100	347	stimuli/movNat/fire/mn_fire10.jpg                	1	5	1	mn_fire10.jpg        	movNat   	3	fire      	15	fire10      	159	not_alive	0	moves	1	natural 	1	n	0	0        	 	0.0	0	168.249257899937	168.349221799988	0.0999639000510797
122123	100	348	stimuli/plant2/fern/plant_fern09.jpg             	1	5	1	plant_fern09.jpg     	plant2   	7	fern      	14	fern09      	148	alive    	1	still	0	natural 	1	n	0	0        	 	0.0	0	168.399229399976	168.499227799941	0.0999983999645338
122273	100	349	stimuli/movNat/river/mn_river10.jpg              	1	5	1	mn_river10.jpg       	movNat   	3	river     	29	river10     	299	not_alive	0	moves	1	natural 	1	n	0	0        	 	0.0	0	168.549234599923	168.649230299983	0.0999957000603899
122423	100	350	stimuli/nonmovArt/headphones/nma_headphones08.jpg	1	5	1	nma_headphones08.jpg 	nonmovArt	4	headphones	18	headphones08	187	not_alive	0	still	0	artefact	0	n	0	0        	 	0.0	0	168.699255999993	168.799233899917	0.099977899924852
122573	100	351	stimuli/movNat/hotspring/mn_hotspring01.jpg      	1	5	1	mn_hotspring01.jpg   	movNat   	3	hotspring 	21	hotspring01 	210	not_alive	0	moves	1	natural 	1	n	0	0        	 	0.0	0	168.849243999925	168.949239199981	0.0999952000565827
122723	100	352	stimuli/movNat/hotspring/mn_hotspring04.jpg      	1	5	1	mn_hotspring04.jpg   	movNat   	3	hotspring 	21	hotspring04 	213	not_alive	0	moves	1	natural 	1	n	0	0        	 	0.0	0	168.999247399974	169.099240600015	0.0999932000413537
122873	100	353	stimuli/nonmovArt/mug/nma_mug04.jpg              	1	5	1	nma_mug04.jpg        	nonmovArt	4	mug       	26	mug04       	263	not_alive	0	still	0	artefact	0	n	0	0        	 	0.0	0	169.14925259992	169.249246499967	0.0999939000466838
123023	100	354	stimuli/nonmovArt/clothespeg/nma_clothespeg03.jpg	1	5	1	nma_clothespeg03.jpg 	nonmovArt	4	clothespeg	8	clothespeg03	82	not_alive	0	still	0	artefact	0	n	0	0        	 	0.0	0	169.299257299979	169.399248700007	0.0999914000276476
123173	100	355	stimuli/movArt/car/ma_car02.jpg                  	1	5	1	ma_car02.jpg         	movArt   	2	car       	5	car02       	51	not_alive	0	moves	1	artefact	0	n	0	0        	 	0.0	0	169.449262899929	169.549252999946	0.0999901000177488
123323	100	356	stimuli/animals/cat/animal_cat06.jpg             	1	5	1	animal_cat06.jpg     	animals  	0	cat       	6	cat06       	65	alive    	1	moves	1	natural 	1	n	0	0        	 	0.0	0	169.599261599942	169.699256099993	0.0999945000512525
123473	100	357	stimuli/plant/cactus/plant_cactus03.jpg          	1	5	1	plant_cactus03.jpg   	plant    	6	cactus    	4	cactus03    	42	alive    	1	still	0	natural 	1	n	0	0        	 	0.0	0	169.74926880002	169.849260899937	0.0999920999165624
123623	100	358	stimuli/nonmovNat/rock/nmn_rock01.jpg            	1	5	1	nmn_rock01.jpg       	nonmovNat	5	rock      	30	rock01      	300	not_alive	0	still	0	natural 	1	n	0	0        	 	0.0	0	169.899271499948	169.999264699989	0.0999932000413537
123773	100	359	stimuli/nonmovNat/sand/nmn_sand09.jpg            	1	5	1	nmn_sand09.jpg       	nonmovNat	5	sand      	31	sand09      	318	not_alive	0	still	0	natural 	1	n	0	0        	 	0.0	0	170.049274499994	170.149271199945	0.0999966999515891
123923	100	360	stimuli/movArt/helicopter/ma_helicopter10.jpg    	1	5	1	ma_helicopter10.jpg  	movArt   	2	helicopter	19	helicopter10	199	not_alive	0	moves	1	artefact	0	n	1	0        	 	0.0	0	170.199278799933	170.299270999967	0.0999922000337392
124073	100	361	stimuli/nonmovArt/mug/nma_mug04.jpg              	1	5	1	nma_mug04.jpg        	nonmovArt	4	mug       	26	mug04       	263	not_alive	0	still	0	artefact	0	n	0	0        	 	0.0	0	170.34928319999	170.449322400033	0.100039200042374
124223	100	362	stimuli/plant/cactus/plant_cactus06.jpg          	1	5	1	plant_cactus06.jpg   	plant    	6	cactus    	4	cactus06    	45	alive    	1	still	0	natural 	1	n	0	1        	f	0.391980300075375	1	170.499285799917	170.599279899965	0.0999941000482068
124373	100	363	stimuli/movNat/fire/mn_fire04.jpg                	1	5	1	mn_fire04.jpg        	movNat   	3	fire      	15	fire04      	153	not_alive	0	moves	1	natural 	1	n	0	0        	 	0.0	0	170.649304499966	170.749286399921	0.0999818999553099
124523	100	364	stimuli/nonmovArt/lock/nma_lock10.jpg            	1	5	1	nma_lock10.jpg       	nonmovArt	4	lock      	24	lock10      	249	not_alive	0	still	0	artefact	0	n	0	0        	 	0.0	0	170.799293500022	170.899287199951	0.0999936999287456
124673	100	365	stimuli/animals/dolphin/animal_dolphin01.jpg     	1	5	1	animal_dolphin01.jpg 	animals  	0	dolphin   	12	dolphin01   	120	alive    	1	moves	1	natural 	1	n	0	0        	 	0.0	0	170.949299499975	171.049294999917	0.0999954999424517
124823	100	366	stimuli/movArt/train/ma_train03.jpg              	1	5	1	ma_train03.jpg       	movArt   	2	train     	34	train03     	342	not_alive	0	moves	1	artefact	0	n	0	0        	 	0.0	0	171.099318100023	171.199342599954	0.100024499930441
124973	100	367	stimuli/movNat/waves/mn_waves08.jpg              	1	5	1	mn_waves08.jpg       	movNat   	3	waves     	38	waves08     	387	not_alive	0	moves	1	natural 	1	n	0	0        	 	0.0	0	171.249307299964	171.349301500013	0.0999942000489682
125123	100	368	stimuli/movNat/river/mn_river02.jpg              	1	5	1	mn_river02.jpg       	movNat   	3	river     	29	river02     	291	not_alive	0	moves	1	natural 	1	n	0	0        	 	0.0	0	171.399313599919	171.499304599944	0.0999910000246018
125273	100	369	stimuli/movNat/hotspring/mn_hotspring06.jpg      	1	5	1	mn_hotspring06.jpg   	movNat   	3	hotspring 	21	hotspring06 	215	not_alive	0	moves	1	natural 	1	n	0	0        	 	0.0	0	171.549314099946	171.649309900007	0.0999958000611514
125423	100	370	stimuli/animals2/whale/animal_whale03.jpg        	1	5	1	animal_whale03.jpg   	animals2 	1	whale     	39	whale03     	392	alive    	1	moves	1	natural 	1	n	0	0        	 	0.0	0	171.699319600011	171.799329599948	0.100009999936447
125573	100	371	stimuli/plant2/palmtree/plant_palmtree07.jpg     	1	5	1	plant_palmtree07.jpg 	plant2   	7	palmtree  	27	palmtree07  	276	alive    	1	still	0	natural 	1	n	0	0        	 	0.0	0	171.849322799942	171.949329799972	0.100007000030018
125723	100	372	stimuli/movArt/helicopter/ma_helicopter04.jpg    	1	5	1	ma_helicopter04.jpg  	movArt   	2	helicopter	19	helicopter04	193	not_alive	0	moves	1	artefact	0	n	0	0        	 	0.0	0	171.999326099991	172.099322199938	0.0999960999470204
125873	100	373	stimuli/nonmovNat/crystal/nmn_crystal03.jpg      	1	5	1	nmn_crystal03.jpg    	nonmovNat	5	crystal   	10	crystal03   	102	not_alive	0	still	0	natural 	1	n	0	0        	 	0.0	0	172.149332199944	172.24932329997	0.0999911000253633
126023	100	374	stimuli/nonmovArt/headphones/nma_headphones05.jpg	1	5	1	nma_headphones05.jpg 	nonmovArt	4	headphones	18	headphones05	184	not_alive	0	still	0	artefact	0	n	0	0        	 	0.0	0	172.299373999936	172.399330999935	0.0999569999985397
126173	100	375	stimuli/nonmovArt/mug/nma_mug02.jpg              	1	5	1	nma_mug02.jpg        	nonmovArt	4	mug       	26	mug02       	261	not_alive	0	still	0	artefact	0	n	0	0        	 	0.0	0	172.44933740003	172.54933509999	0.0999976999592036
126323	100	376	stimuli/animals2/tiger/animal_tiger01.jpg        	1	5	1	animal_tiger01.jpg   	animals2 	1	tiger     	33	tiger01     	330	alive    	1	moves	1	natural 	1	n	0	0        	 	0.0	0	172.599343999987	172.699350400013	0.10000640002545
126473	100	377	stimuli/movNat/waterfall/mn_waterfall02.jpg      	1	5	1	mn_waterfall02.jpg   	movNat   	3	waterfall 	37	waterfall02 	371	not_alive	0	moves	1	natural 	1	n	0	0        	 	0.0	0	172.749346400029	172.849337699939	0.0999912999104708
126623	100	378	stimuli/plant2/fern/plant_fern08.jpg             	1	5	1	plant_fern08.jpg     	plant2   	7	fern      	14	fern08      	147	alive    	1	still	0	natural 	1	n	0	0        	 	0.0	0	172.899363699951	172.999342199997	0.099978500045836
126773	100	379	stimuli/animals2/bee/animal_bee05.jpg            	1	5	1	animal_bee05.jpg     	animals2 	1	bee       	0	bee05       	4	alive    	1	moves	1	natural 	1	n	0	0        	 	0.0	0	173.049384100013	173.14935219998	0.0999680999666452
126923	100	380	stimuli/nonmovNat/sand/nmn_sand02.jpg            	1	5	1	nmn_sand02.jpg       	nonmovNat	5	sand      	31	sand02      	311	not_alive	0	still	0	natural 	1	n	0	0        	 	0.0	0	173.199358299957	173.299374899943	0.100016599986702
127073	100	381	stimuli/plant/grass/plant_grass09.jpg            	1	5	1	plant_grass09.jpg    	plant    	6	grass     	17	grass09     	178	alive    	1	still	0	natural 	1	n	0	0        	 	0.0	0	173.349361700006	173.449354299926	0.0999925999203697
127223	100	382	stimuli/animals/eagle/animal_eagle04.jpg         	1	5	1	animal_eagle04.jpg   	animals  	0	eagle     	13	eagle04     	133	alive    	1	moves	1	natural 	1	n	0	0        	 	0.0	0	173.499365599942	173.599359199987	0.0999936000443995
127373	100	383	stimuli/nonmovNat/shell/nmn_shell01.jpg          	1	5	1	nmn_shell01.jpg      	nonmovNat	5	shell     	32	shell01     	320	not_alive	0	still	0	natural 	1	n	0	0        	 	0.0	0	173.649383099983	173.74936259992	0.0999794999370351
127523	100	384	stimuli/movArt/bus/ma_bus06.jpg                  	1	5	1	ma_bus06.jpg         	movArt   	2	bus       	3	bus06       	35	not_alive	0	moves	1	artefact	0	n	1	0        	 	0.0	0	173.799390499946	173.899366899976	0.0999764000298455
127673	100	385	stimuli/movArt/car/ma_car07.jpg                  	1	5	1	ma_car07.jpg         	movArt   	2	car       	5	car07       	56	not_alive	0	moves	1	artefact	0	n	0	0        	 	0.0	0	173.949376199977	174.04937309993	0.099996899953112
127823	100	386	stimuli/movNat/waterfall/mn_waterfall06.jpg      	1	5	1	mn_waterfall06.jpg   	movNat   	3	waterfall 	37	waterfall06 	375	not_alive	0	moves	1	natural 	1	n	0	1        	f	0.391991800046526	1	174.099381299922	174.19937669998	0.0999954000581056
127973	100	387	stimuli/plant2/moss/plant_moss02.jpg             	1	5	1	plant_moss02.jpg     	plant2   	7	moss      	25	moss02      	251	alive    	1	still	0	natural 	1	n	0	0        	 	0.0	0	174.249387299991	174.34938010003	0.0999928000383079
128123	100	388	stimuli/nonmovNat/crystal/nmn_crystal03.jpg      	1	5	1	nmn_crystal03.jpg    	nonmovNat	5	crystal   	10	crystal03   	102	not_alive	0	still	0	natural 	1	n	0	0        	 	0.0	0	174.399402400013	174.499382999958	0.0999805999454111
128273	100	389	stimuli/animals2/bee/animal_bee09.jpg            	1	5	1	animal_bee09.jpg     	animals2 	1	bee       	0	bee09       	8	alive    	1	moves	1	natural 	1	n	0	0        	 	0.0	0	174.549409999978	174.649387600017	0.0999776000389829
128423	100	390	stimuli/movNat/river/mn_river06.jpg              	1	5	1	mn_river06.jpg       	movNat   	3	river     	29	river06     	295	not_alive	0	moves	1	natural 	1	n	0	0        	 	0.0	0	174.699396800017	174.799391199951	0.0999943999340758
128573	100	391	stimuli/animals/dog/animal_dog03.jpg             	1	5	1	animal_dog03.jpg     	animals  	0	dog       	11	dog03       	112	alive    	1	moves	1	natural 	1	n	0	0        	 	0.0	0	174.849411799922	174.94939850003	0.0999867001082748
128723	100	392	stimuli/nonmovNat/rock/nmn_rock10.jpg            	1	5	1	nmn_rock10.jpg       	nonmovNat	5	rock      	30	rock10      	309	not_alive	0	still	0	natural 	1	n	0	0        	 	0.0	0	174.999405700015	175.099399899947	0.0999941999325529
128873	100	393	stimuli/animals2/pigeon/animal_pigeon03.jpg      	1	5	1	animal_pigeon03.jpg  	animals2 	1	pigeon    	28	pigeon03    	282	alive    	1	moves	1	natural 	1	n	0	0        	 	0.0	0	175.149410199956	175.249403900001	0.099993700045161
129023	100	394	stimuli/movArt/bus/ma_bus06.jpg                  	1	5	1	ma_bus06.jpg         	movArt   	2	bus       	3	bus06       	35	not_alive	0	moves	1	artefact	0	n	0	0        	 	0.0	0	175.299412199995	175.399407099932	0.099994899937883
129173	100	395	stimuli/movNat/fire/mn_fire03.jpg                	1	5	1	mn_fire03.jpg        	movNat   	3	fire      	15	fire03      	152	not_alive	0	moves	1	natural 	1	n	0	0        	 	0.0	0	175.449425300001	175.549417200033	0.0999919000314549
129323	100	396	stimuli/plant/tree/plant_tree02.jpg              	1	5	1	plant_tree02.jpg     	plant    	6	tree      	35	tree02      	351	alive    	1	still	0	natural 	1	n	0	0        	 	0.0	0	175.599428399932	175.69942119997	0.0999928000383079
129473	100	397	stimuli/nonmovNat/rock/nmn_rock03.jpg            	1	5	1	nmn_rock03.jpg       	nonmovNat	5	rock      	30	rock03      	302	not_alive	0	still	0	natural 	1	n	0	0        	 	0.0	0	175.749431099975	175.849424100015	0.0999930000398308
129623	100	398	stimuli/animals/dolphin/animal_dolphin02.jpg     	1	5	1	animal_dolphin02.jpg 	animals  	0	dolphin   	12	dolphin02   	121	alive    	1	moves	1	natural 	1	n	0	0        	 	0.0	0	175.899437799933	175.999433799996	0.0999960000626743
129773	100	399	stimuli/nonmovArt/bench/nma_bench01.jpg          	1	5	1	nma_bench01.jpg      	nonmovArt	4	bench     	1	bench01     	10	not_alive	0	still	0	artefact	0	n	0	0        	 	0.0	0	176.049459800008	176.149434400024	0.0999746000161394
146540	100	400	stimuli/nonmovArt/headphones/nma_headphones06.jpg	1	6	1	nma_headphones06.jpg 	nonmovArt	4	headphones	18	headphones06	185	not_alive	0	still	0	artefact	0	n	0	0        	 	0.0	0	192.816582200001	192.916541600018	0.0999594000168145
146690	100	401	stimuli/animals2/whale/animal_whale02.jpg        	1	6	1	animal_whale02.jpg   	animals2 	1	whale     	39	whale02     	391	alive    	1	moves	1	natural 	1	n	0	0        	 	0.0	0	192.96655240003	193.066556999926	0.100004599895328
146840	100	402	stimuli/movArt/bus/ma_bus06.jpg                  	1	6	1	ma_bus06.jpg         	movArt   	2	bus       	3	bus06       	35	not_alive	0	moves	1	artefact	0	n	0	0        	 	0.0	0	193.116569999955	193.216550300014	0.0999803000595421
146990	100	403	stimuli/movNat/waves/mn_waves06.jpg              	1	6	1	mn_waves06.jpg       	movNat   	3	waves     	38	waves06     	385	not_alive	0	moves	1	natural 	1	n	0	0        	 	0.0	0	193.266570899985	193.366562700015	0.0999918000306934
147140	100	404	stimuli/movNat/hotspring/mn_hotspring04.jpg      	1	6	1	mn_hotspring04.jpg   	movNat   	3	hotspring 	21	hotspring04 	213	not_alive	0	moves	1	natural 	1	n	0	0        	 	0.0	0	193.416584699997	193.516557299998	0.0999726000009105
147290	100	405	stimuli/nonmovArt/lock/nma_lock03.jpg            	1	6	1	nma_lock03.jpg       	nonmovArt	4	lock      	24	lock03      	242	not_alive	0	still	0	artefact	0	n	0	0        	 	0.0	0	193.56658069999	193.666560499929	0.0999797999393195
147440	100	406	stimuli/nonmovArt/clothespeg/nma_clothespeg03.jpg	1	6	1	nma_clothespeg03.jpg 	nonmovArt	4	clothespeg	8	clothespeg03	82	not_alive	0	still	0	artefact	0	n	0	0        	 	0.0	0	193.716570899938	193.816561599961	0.0999907000223175
147590	100	407	stimuli/plant/flower/plant_flower08.jpg          	1	6	1	plant_flower08.jpg   	plant    	6	flower    	16	flower08    	167	alive    	1	still	0	natural 	1	n	0	0        	 	0.0	0	193.866575399996	193.966579	0.100003600004129
147740	100	408	stimuli/movNat/hotspring/mn_hotspring02.jpg      	1	6	1	mn_hotspring02.jpg   	movNat   	3	hotspring 	21	hotspring02 	211	not_alive	0	moves	1	natural 	1	n	0	0        	 	0.0	0	194.016575800022	194.11657469999	0.099998899968341
147890	100	409	stimuli/plant2/lemontree/plant_lemontree04.jpg   	1	6	1	plant_lemontree04.jpg	plant2   	7	lemontree 	22	lemontree04 	223	alive    	1	still	0	natural 	1	n	0	0        	 	0.0	0	194.166591599933	194.266601299983	0.100009700050578
148040	100	410	stimuli/movArt/car/ma_car10.jpg                  	1	6	1	ma_car10.jpg         	movArt   	2	car       	5	car10       	59	not_alive	0	moves	1	artefact	0	n	0	0        	 	0.0	0	194.31658809993	194.416577999946	0.0999899000162259
148190	100	411	stimuli/animals/eagle/animal_eagle08.jpg         	1	6	1	animal_eagle08.jpg   	animals  	0	eagle     	13	eagle08     	137	alive    	1	moves	1	natural 	1	n	0	0        	 	0.0	0	194.46659029997	194.566583800013	0.099993500043638
148340	100	412	stimuli/plant2/lemontree/plant_lemontree09.jpg   	1	6	1	plant_lemontree09.jpg	plant2   	7	lemontree 	22	lemontree09 	228	alive    	1	still	0	natural 	1	n	0	0        	 	0.0	0	194.6165913	194.716589799966	0.0999984999652952
148490	100	413	stimuli/nonmovArt/bench/nma_bench06.jpg          	1	6	1	nma_bench06.jpg      	nonmovArt	4	bench     	1	bench06     	15	not_alive	0	still	0	artefact	0	n	0	0        	 	0.0	0	194.766599099967	194.866593800019	0.0999947000527754
