onset	duration	eventnumber	stimulus_file	blockno	trialno	is_faststream	stim	stim_category	category_number	exemplar	exemplar_number	image_name	image_number	aliveness	aliveness_bin	movement	movement_bin	naturalness	naturalness_bin	response_hand_alive	istarget	response	keypressed	rt	correct	time_stimon	time_stimoff	stimdur
162204	100	0	stimuli/nonmovArt/lock/nma_lock09.jpg            	1	1	1	nma_lock09.jpg       	nonmovArt	4	lock      	24	lock09      	248	not_alive	0	still	0	artefact	0	n	0	0        	 	0.0	0	148.473520100117	148.573510600021	0.0999904999043792
162354	100	1	stimuli/plant/tree/plant_tree06.jpg              	1	1	1	plant_tree06.jpg     	plant    	6	tree      	35	tree06      	355	alive    	1	still	0	natural 	1	n	0	0        	 	0.0	0	148.623528500088	148.723508000141	0.0999795000534505
162504	100	2	stimuli/plant2/clover/plant_clover09.jpg         	1	1	1	plant_clover09.jpg   	plant2   	7	clover    	9	clover09    	98	alive    	1	still	0	natural 	1	n	0	1        	a	0.0	0	148.773524100194	148.873515000101	0.099990899907425
162654	100	3	stimuli/movNat/river/mn_river01.jpg              	1	1	1	mn_river01.jpg       	movNat   	3	river     	29	river01     	290	not_alive	0	moves	1	natural 	1	n	0	0        	 	0.0	0	148.923531500157	149.023527000099	0.0999954999424517
162804	100	4	stimuli/movNat/hotspring/mn_hotspring01.jpg      	1	1	1	mn_hotspring01.jpg   	movNat   	3	hotspring 	21	hotspring01 	210	not_alive	0	moves	1	natural 	1	n	0	0        	 	0.0	0	149.073537300108	149.173527100123	0.0999898000154644
162954	100	5	stimuli/nonmovArt/headphones/nma_headphones07.jpg	1	1	1	nma_headphones07.jpg 	nonmovArt	4	headphones	18	headphones07	186	not_alive	0	still	0	artefact	0	n	0	0        	 	0.0	0	149.223554300144	149.323534000199	0.0999797000549734
163104	100	6	stimuli/movArt/train/ma_train08.jpg              	1	1	1	ma_train08.jpg       	movArt   	2	train     	34	train08     	347	not_alive	0	moves	1	artefact	0	n	0	0        	 	0.0	0	149.373559100088	149.473536400124	0.0999773000366986
163255	100	7	stimuli/movArt/bus/ma_bus04.jpg                  	1	1	1	ma_bus04.jpg         	movArt   	2	bus       	3	bus04       	33	not_alive	0	moves	1	artefact	0	n	0	0        	 	0.0	0	149.524028700078	149.623545099981	0.0995163999032229
163404	100	8	stimuli/nonmovNat/shell/nmn_shell01.jpg          	1	1	1	nmn_shell01.jpg      	nonmovNat	5	shell     	32	shell01     	320	not_alive	0	still	0	natural 	1	n	0	0        	 	0.0	0	149.673545100028	149.773537500063	0.0999924000352621
163554	100	9	stimuli/movArt/car/ma_car03.jpg                  	1	1	1	ma_car03.jpg         	movArt   	2	car       	5	car03       	52	not_alive	0	moves	1	artefact	0	n	0	0        	 	0.0	0	149.823552400107	149.923549600178	0.0999972000718117
163704	100	10	stimuli/animals2/tiger/animal_tiger01.jpg        	1	1	1	animal_tiger01.jpg   	animals2 	1	tiger     	33	tiger01     	330	alive    	1	moves	1	natural 	1	n	0	0        	 	0.0	0	149.973551600007	150.073544800049	0.0999932000413537
163854	100	11	stimuli/movNat/hotspring/mn_hotspring07.jpg      	1	1	1	mn_hotspring07.jpg   	movNat   	3	hotspring 	21	hotspring07 	216	not_alive	0	moves	1	natural 	1	n	0	0        	 	0.0	0	150.123550900025	150.223547599977	0.0999966999515891
164004	100	12	stimuli/nonmovNat/rock/nmn_rock10.jpg            	1	1	1	nmn_rock10.jpg       	nonmovNat	5	rock      	30	rock10      	309	not_alive	0	still	0	natural 	1	n	0	0        	 	0.0	0	150.273559699999	150.373579800129	0.100020100129768
164154	100	13	stimuli/nonmovNat/cliff/nmn_cliff10.jpg          	1	1	1	nmn_cliff10.jpg      	nonmovNat	5	cliff     	7	cliff10     	79	not_alive	0	still	0	natural 	1	n	0	0        	 	0.0	0	150.423560900148	150.523552600062	0.0999916999135166
164304	100	14	stimuli/plant2/moss/plant_moss06.jpg             	1	1	1	plant_moss06.jpg     	plant2   	7	moss      	25	moss06      	255	alive    	1	still	0	natural 	1	n	0	0        	 	0.0	0	150.573565600207	150.673557700124	0.0999920999165624
164454	100	15	stimuli/movArt/car/ma_car03.jpg                  	1	1	1	ma_car03.jpg         	movArt   	2	car       	5	car03       	52	not_alive	0	moves	1	artefact	0	n	0	0        	 	0.0	0	150.723568800138	150.823570200009	0.100001399870962
164604	100	16	stimuli/animals/horse/animal_horse04.jpg         	1	1	1	animal_horse04.jpg   	animals  	0	horse     	20	horse04     	203	alive    	1	moves	1	natural 	1	n	0	0        	 	0.0	0	150.873571700184	150.973593800096	0.100022099912167
164754	100	17	stimuli/plant2/palmtree/plant_palmtree08.jpg     	1	1	1	plant_palmtree08.jpg 	plant2   	7	palmtree  	27	palmtree08  	277	alive    	1	still	0	natural 	1	n	0	0        	 	0.0	0	151.023578900145	151.123592300108	0.100013399962336
164904	100	18	stimuli/animals/dog/animal_dog10.jpg             	1	1	1	animal_dog10.jpg     	animals  	0	dog       	11	dog10       	119	alive    	1	moves	1	natural 	1	n	0	0        	 	0.0	0	151.173581300071	151.273573500104	0.0999922000337392
165054	100	19	stimuli/movArt/helicopter/ma_helicopter03.jpg    	1	1	1	ma_helicopter03.jpg  	movArt   	2	helicopter	19	helicopter03	192	not_alive	0	moves	1	artefact	0	n	1	0        	 	0.0	0	151.323581499979	151.423578800168	0.0999973001889884
165204	100	20	stimuli/nonmovArt/bench/nma_bench09.jpg          	1	1	1	nma_bench09.jpg      	nonmovArt	4	bench     	1	bench09     	18	not_alive	0	still	0	artefact	0	n	0	0        	 	0.0	0	151.473589600064	151.573581899982	0.0999922999180853
165354	100	21	stimuli/animals/dolphin/animal_dolphin04.jpg     	1	1	1	animal_dolphin04.jpg 	animals  	0	dolphin   	12	dolphin04   	123	alive    	1	moves	1	natural 	1	n	0	0        	 	0.0	0	151.623593600001	151.72360360017	0.100010000169277
165504	100	22	stimuli/plant2/lemontree/plant_lemontree04.jpg   	1	1	1	plant_lemontree04.jpg	plant2   	7	lemontree 	22	lemontree04 	223	alive    	1	still	0	natural 	1	n	0	0        	 	0.0	0	151.773596700048	151.873601100175	0.100004400126636
165654	100	23	stimuli/movArt/train/ma_train02.jpg              	1	1	1	ma_train02.jpg       	movArt   	2	train     	34	train02     	341	not_alive	0	moves	1	artefact	0	n	0	0        	 	0.0	0	151.923597300192	152.023593200138	0.0999958999454975
165804	100	24	stimuli/plant2/lemontree/plant_lemontree06.jpg   	1	1	1	plant_lemontree06.jpg	plant2   	7	lemontree 	22	lemontree06 	225	alive    	1	still	0	natural 	1	n	0	0        	 	0.0	0	152.073611600092	152.17359570018	0.0999841000884771
165954	100	25	stimuli/movNat/waterfall/mn_waterfall02.jpg      	1	1	1	mn_waterfall02.jpg   	movNat   	3	waterfall 	37	waterfall02 	371	not_alive	0	moves	1	natural 	1	n	0	1        	a	0.992027900181711	1	152.223645800026	152.3235996	0.0999537999741733
166104	100	26	stimuli/movNat/fire/mn_fire09.jpg                	1	1	1	mn_fire09.jpg        	movNat   	3	fire      	15	fire09      	158	not_alive	0	moves	1	natural 	1	n	0	0        	 	0.0	0	152.37361130002	152.473608999979	0.0999976999592036
166254	100	27	stimuli/movNat/waves/mn_waves04.jpg              	1	1	1	mn_waves04.jpg       	movNat   	3	waves     	38	waves04     	383	not_alive	0	moves	1	natural 	1	n	0	0        	 	0.0	0	152.523611500161	152.623615500052	0.10000399989076
166404	100	28	stimuli/nonmovNat/shell/nmn_shell09.jpg          	1	1	1	nmn_shell09.jpg      	nonmovNat	5	shell     	32	shell09     	328	not_alive	0	still	0	natural 	1	n	1	0        	 	0.0	0	152.673616700107	152.773610200034	0.0999934999272227
166554	100	29	stimuli/animals2/tiger/animal_tiger07.jpg        	1	1	1	animal_tiger07.jpg   	animals2 	1	tiger     	33	tiger07     	336	alive    	1	moves	1	natural 	1	n	0	0        	 	0.0	0	152.823638800066	152.923613300081	0.099974500015378
166704	100	30	stimuli/nonmovArt/lock/nma_lock05.jpg            	1	1	1	nma_lock05.jpg       	nonmovArt	4	lock      	24	lock05      	244	not_alive	0	still	0	artefact	0	n	0	1        	a	0.391995700076222	1	152.9736533002	153.07361800014	0.099964699940756
166854	100	31	stimuli/animals2/whale/animal_whale05.jpg        	1	1	1	animal_whale05.jpg   	animals2 	1	whale     	39	whale05     	394	alive    	1	moves	1	natural 	1	n	0	0        	 	0.0	0	153.123627300141	153.223622200079	0.099994899937883
167004	100	32	stimuli/animals/horse/animal_horse02.jpg         	1	1	1	animal_horse02.jpg   	animals  	0	horse     	20	horse02     	201	alive    	1	moves	1	natural 	1	n	0	0        	 	0.0	0	153.273634199984	153.373625500128	0.0999913001433015
167154	100	33	stimuli/animals2/bee/animal_bee03.jpg            	1	1	1	animal_bee03.jpg     	animals2 	1	bee       	0	bee03       	2	alive    	1	moves	1	natural 	1	n	1	0        	 	0.0	0	153.423636100022	153.523629500065	0.0999934000428766
167304	100	34	stimuli/plant/vine/plant_vine06.jpg              	1	1	1	plant_vine06.jpg     	plant    	6	vine      	36	vine06      	365	alive    	1	still	0	natural 	1	n	0	0        	 	0.0	0	153.573656100081	153.67365380004	0.0999976999592036
167454	100	35	stimuli/animals2/bee/animal_bee09.jpg            	1	1	1	animal_bee09.jpg     	animals2 	1	bee       	0	bee09       	8	alive    	1	moves	1	natural 	1	n	0	1        	a	0.29212630004622	1	153.723655400099	153.823636300163	0.0999809000641108
167604	100	36	stimuli/movNat/river/mn_river06.jpg              	1	1	1	mn_river06.jpg       	movNat   	3	river     	29	river06     	295	not_alive	0	moves	1	natural 	1	n	0	0        	 	0.0	0	153.873649600195	153.9736424	0.0999927998054773
167754	100	37	stimuli/movNat/waterfall/mn_waterfall06.jpg      	1	1	1	mn_waterfall06.jpg   	movNat   	3	waterfall 	37	waterfall06 	375	not_alive	0	moves	1	natural 	1	n	0	0        	 	0.0	0	154.023663000204	154.123644000152	0.0999809999484569
167904	100	38	stimuli/animals/eagle/animal_eagle06.jpg         	1	1	1	animal_eagle06.jpg   	animals  	0	eagle     	13	eagle06     	135	alive    	1	moves	1	natural 	1	n	0	0        	 	0.0	0	154.173655700171	154.273647300201	0.0999916000291705
168054	100	39	stimuli/movNat/fire/mn_fire06.jpg                	1	1	1	mn_fire06.jpg        	movNat   	3	fire      	15	fire06      	155	not_alive	0	moves	1	natural 	1	n	0	0        	 	0.0	0	154.323658599984	154.423652700149	0.0999941001646221
168204	100	40	stimuli/plant/flower/plant_flower03.jpg          	1	1	1	plant_flower03.jpg   	plant    	6	flower    	16	flower03    	162	alive    	1	still	0	natural 	1	n	0	0        	 	0.0	0	154.473675800022	154.573656000197	0.0999802001751959
168354	100	41	stimuli/nonmovNat/rock/nmn_rock06.jpg            	1	1	1	nmn_rock06.jpg       	nonmovNat	5	rock      	30	rock06      	305	not_alive	0	still	0	natural 	1	n	0	0        	 	0.0	0	154.623666300205	154.72365629999	0.0999899997841567
168504	100	42	stimuli/animals/dog/animal_dog10.jpg             	1	1	1	animal_dog10.jpg     	animals  	0	dog       	11	dog10       	119	alive    	1	moves	1	natural 	1	n	0	0        	 	0.0	0	154.773669300135	154.873664200073	0.099994899937883
168654	100	43	stimuli/animals/dolphin/animal_dolphin07.jpg     	1	1	1	animal_dolphin07.jpg 	animals  	0	dolphin   	12	dolphin07   	126	alive    	1	moves	1	natural 	1	n	0	0        	 	0.0	0	154.923671900062	155.023667200003	0.0999952999409288
168804	100	44	stimuli/animals/cat/animal_cat02.jpg             	1	1	1	animal_cat02.jpg     	animals  	0	cat       	6	cat02       	61	alive    	1	moves	1	natural 	1	n	0	0        	 	0.0	0	155.073677200126	155.173670500051	0.0999932999256998
168954	100	45	stimuli/movNat/hotspring/mn_hotspring09.jpg      	1	1	1	mn_hotspring09.jpg   	movNat   	3	hotspring 	21	hotspring09 	218	not_alive	0	moves	1	natural 	1	n	0	0        	 	0.0	0	155.223682300188	155.323678700021	0.0999963998328894
169104	100	46	stimuli/plant/cactus/plant_cactus03.jpg          	1	1	1	plant_cactus03.jpg   	plant    	6	cactus    	4	cactus03    	42	alive    	1	still	0	natural 	1	n	0	0        	 	0.0	0	155.373685500119	155.473678900162	0.0999934000428766
169254	100	47	stimuli/animals2/lemur/animal_lemur08.jpg        	1	1	1	animal_lemur08.jpg   	animals2 	1	lemur     	23	lemur08     	237	alive    	1	moves	1	natural 	1	n	0	0        	 	0.0	0	155.523699700134	155.6236852	0.0999854998663068
169404	100	48	stimuli/animals2/pigeon/animal_pigeon06.jpg      	1	1	1	animal_pigeon06.jpg  	animals2 	1	pigeon    	28	pigeon06    	285	alive    	1	moves	1	natural 	1	n	0	0        	 	0.0	0	155.673693899997	155.773684200132	0.099990300135687
169554	100	49	stimuli/nonmovNat/cliff/nmn_cliff06.jpg          	1	1	1	nmn_cliff06.jpg      	nonmovNat	5	cliff     	7	cliff06     	75	not_alive	0	still	0	natural 	1	n	0	0        	 	0.0	0	155.823694800027	155.923687200062	0.0999924000352621
169704	100	50	stimuli/movNat/river/mn_river02.jpg              	1	1	1	mn_river02.jpg       	movNat   	3	river     	29	river02     	291	not_alive	0	moves	1	natural 	1	n	0	0        	 	0.0	0	155.973699900089	156.073692000005	0.0999920999165624
169854	100	51	stimuli/nonmovArt/clothespeg/nma_clothespeg10.jpg	1	1	1	nma_clothespeg10.jpg 	nonmovArt	4	clothespeg	8	clothespeg10	89	not_alive	0	still	0	artefact	0	n	0	0        	 	0.0	0	156.12369180005	156.223696500063	0.100004700012505
170004	100	52	stimuli/plant2/fern/plant_fern04.jpg             	1	1	1	plant_fern04.jpg     	plant2   	7	fern      	14	fern04      	143	alive    	1	still	0	natural 	1	n	0	0        	 	0.0	0	156.273705500178	156.373699699994	0.0999941998161376
170154	100	53	stimuli/plant2/clover/plant_clover01.jpg         	1	1	1	plant_clover01.jpg   	plant2   	7	clover    	9	clover01    	90	alive    	1	still	0	natural 	1	n	0	0        	 	0.0	0	156.423710600007	156.523724100087	0.100013500079513
170304	100	54	stimuli/plant/grass/plant_grass06.jpg            	1	1	1	plant_grass06.jpg    	plant    	6	grass     	17	grass06     	175	alive    	1	still	0	natural 	1	n	0	0        	 	0.0	0	156.573714000173	156.673733600182	0.100019600009546
170454	100	55	stimuli/movArt/boat/ma_boat10.jpg                	1	1	1	ma_boat10.jpg        	movArt   	2	boat      	2	boat10      	29	not_alive	0	moves	1	artefact	0	n	0	0        	 	0.0	0	156.723718299996	156.823709900025	0.0999916000291705
170604	100	56	stimuli/plant/cactus/plant_cactus09.jpg          	1	1	1	plant_cactus09.jpg   	plant    	6	cactus    	4	cactus09    	48	alive    	1	still	0	natural 	1	n	0	0        	 	0.0	0	156.873720500153	156.973715200089	0.0999946999363601
170754	100	57	stimuli/animals2/bee/animal_bee02.jpg            	1	1	1	animal_bee02.jpg     	animals2 	1	bee       	0	bee02       	1	alive    	1	moves	1	natural 	1	n	0	0        	 	0.0	0	157.023725700099	157.123717100127	0.0999914000276476
170904	100	58	stimuli/nonmovArt/headphones/nma_headphones01.jpg	1	1	1	nma_headphones01.jpg 	nonmovArt	4	headphones	18	headphones01	180	not_alive	0	still	0	artefact	0	n	1	0        	 	0.0	0	157.173729600152	157.273746200139	0.100016599986702
171054	100	59	stimuli/nonmovArt/bench/nma_bench07.jpg          	1	1	1	nma_bench07.jpg      	nonmovArt	4	bench     	1	bench07     	16	not_alive	0	still	0	artefact	0	n	0	0        	 	0.0	0	157.323732500197	157.423737300094	0.100004799896851
171204	100	60	stimuli/plant2/lemontree/plant_lemontree05.jpg   	1	1	1	plant_lemontree05.jpg	plant2   	7	lemontree 	22	lemontree05 	224	alive    	1	still	0	natural 	1	n	0	1        	a	0.292188199935481	1	157.473750300007	157.573729500175	0.0999792001675814
171354	100	61	stimuli/animals/horse/animal_horse01.jpg         	1	1	1	animal_horse01.jpg   	animals  	0	horse     	20	horse01     	200	alive    	1	moves	1	natural 	1	n	0	0        	 	0.0	0	157.62374030007	157.723732700106	0.0999924000352621
171504	100	62	stimuli/plant/vine/plant_vine09.jpg              	1	1	1	plant_vine09.jpg     	plant    	6	vine      	36	vine09      	368	alive    	1	still	0	natural 	1	n	0	0        	 	0.0	0	157.773762600031	157.873736400157	0.0999738001264632
171654	100	63	stimuli/animals2/pigeon/animal_pigeon09.jpg      	1	1	1	animal_pigeon09.jpg  	animals2 	1	pigeon    	28	pigeon09    	288	alive    	1	moves	1	natural 	1	n	0	0        	 	0.0	0	157.923747600056	158.023752300069	0.100004700012505
171804	100	64	stimuli/nonmovNat/crystal/nmn_crystal05.jpg      	1	1	1	nmn_crystal05.jpg    	nonmovNat	5	crystal   	10	crystal05   	104	not_alive	0	still	0	natural 	1	n	0	0        	 	0.0	0	158.073751500109	158.173746900167	0.0999954000581056
171954	100	65	stimuli/animals2/lemur/animal_lemur05.jpg        	1	1	1	animal_lemur05.jpg   	animals2 	1	lemur     	23	lemur05     	234	alive    	1	moves	1	natural 	1	n	0	0        	 	0.0	0	158.223763999995	158.323749599978	0.0999855999834836
172105	100	66	stimuli/nonmovArt/bench/nma_bench08.jpg          	1	1	1	nma_bench08.jpg      	nonmovArt	4	bench     	1	bench08     	17	not_alive	0	still	0	artefact	0	n	0	0        	 	0.0	0	158.373772800202	158.473752100021	0.0999792998190969
172255	100	67	stimuli/nonmovNat/sand/nmn_sand08.jpg            	1	1	1	nmn_sand08.jpg       	nonmovNat	5	sand      	31	sand08      	317	not_alive	0	still	0	natural 	1	n	0	0        	 	0.0	0	158.52379040001	158.623753700173	0.0999633001629263
172404	100	68	stimuli/nonmovArt/lock/nma_lock10.jpg            	1	1	1	nma_lock10.jpg       	nonmovArt	4	lock      	24	lock10      	249	not_alive	0	still	0	artefact	0	n	0	0        	 	0.0	0	158.673766300082	158.773772800108	0.100006500026211
172555	100	69	stimuli/plant/cactus/plant_cactus03.jpg          	1	1	1	plant_cactus03.jpg   	plant    	6	cactus    	4	cactus03    	42	alive    	1	still	0	natural 	1	n	0	0        	 	0.0	0	158.823783	158.923762200167	0.0999792001675814
172704	100	70	stimuli/plant2/fern/plant_fern09.jpg             	1	1	1	plant_fern09.jpg     	plant2   	7	fern      	14	fern09      	148	alive    	1	still	0	natural 	1	n	0	0        	 	0.0	0	158.973772200057	159.073766499991	0.0999942999333143
172855	100	71	stimuli/nonmovArt/clothespeg/nma_clothespeg10.jpg	1	1	1	nma_clothespeg10.jpg 	nonmovArt	4	clothespeg	8	clothespeg10	89	not_alive	0	still	0	artefact	0	n	0	0        	 	0.0	0	159.123797900043	159.223769300152	0.0999714001081884
173005	100	72	stimuli/nonmovArt/mug/nma_mug04.jpg              	1	1	1	nma_mug04.jpg        	nonmovArt	4	mug       	26	mug04       	263	not_alive	0	still	0	artefact	0	n	0	0        	 	0.0	0	159.273796000052	159.373772400199	0.0999764001462609
173155	100	73	stimuli/animals/cat/animal_cat02.jpg             	1	1	1	animal_cat02.jpg     	animals  	0	cat       	6	cat02       	61	alive    	1	moves	1	natural 	1	n	0	0        	 	0.0	0	159.423783699982	159.523781800177	0.09999810019508
173305	100	74	stimuli/animals/eagle/animal_eagle05.jpg         	1	1	1	animal_eagle05.jpg   	animals  	0	eagle     	13	eagle05     	134	alive    	1	moves	1	natural 	1	n	0	0        	 	0.0	0	159.573788100155	159.67378000007	0.0999918999150395
173455	100	75	stimuli/animals/cat/animal_cat08.jpg             	1	1	1	animal_cat08.jpg     	animals  	0	cat       	6	cat08       	67	alive    	1	moves	1	natural 	1	n	0	0        	 	0.0	0	159.723801200045	159.823796299985	0.0999950999394059
173605	100	76	stimuli/movArt/boat/ma_boat01.jpg                	1	1	1	ma_boat01.jpg        	movArt   	2	boat      	2	boat01      	20	not_alive	0	moves	1	artefact	0	n	0	0        	 	0.0	0	159.873808400007	159.973800300155	0.0999919001478702
173755	100	77	stimuli/plant/grass/plant_grass10.jpg            	1	1	1	plant_grass10.jpg    	plant    	6	grass     	17	grass10     	179	alive    	1	still	0	natural 	1	n	0	0        	 	0.0	0	160.023808200145	160.12380880001	0.10000059986487
173905	100	78	stimuli/animals/dolphin/animal_dolphin10.jpg     	1	1	1	animal_dolphin10.jpg 	animals  	0	dolphin   	12	dolphin10   	129	alive    	1	moves	1	natural 	1	n	0	0        	 	0.0	0	160.173802600009	160.273794100154	0.0999915001448244
174055	100	79	stimuli/nonmovNat/crystal/nmn_crystal08.jpg      	1	1	1	nmn_crystal08.jpg    	nonmovNat	5	crystal   	10	crystal08   	107	not_alive	0	still	0	natural 	1	n	0	0        	 	0.0	0	160.323831900023	160.423803300131	0.0999714001081884
183088	100	80	stimuli/animals2/whale/animal_whale09.jpg        	1	2	1	animal_whale09.jpg   	animals2 	1	whale     	39	whale09     	398	alive    	1	moves	1	natural 	1	n	0	0        	 	0.0	0	169.357368200086	169.457357600098	0.0999894000124186
183238	100	81	stimuli/movArt/helicopter/ma_helicopter10.jpg    	1	2	1	ma_helicopter10.jpg  	movArt   	2	helicopter	19	helicopter10	199	not_alive	0	moves	1	artefact	0	n	0	0        	 	0.0	0	169.507365400204	169.607359300135	0.0999938999302685
183388	100	82	stimuli/plant2/palmtree/plant_palmtree05.jpg     	1	2	1	plant_palmtree05.jpg 	plant2   	7	palmtree  	27	palmtree05  	274	alive    	1	still	0	natural 	1	n	0	0        	 	0.0	0	169.657370900037	169.757378700189	0.100007800152525
183538	100	83	stimuli/plant2/fern/plant_fern07.jpg             	1	2	1	plant_fern07.jpg     	plant2   	7	fern      	14	fern07      	146	alive    	1	still	0	natural 	1	n	0	0        	 	0.0	0	169.807374100201	169.907393499976	0.100019399775192
183688	100	84	stimuli/movNat/waves/mn_waves05.jpg              	1	2	1	mn_waves05.jpg       	movNat   	3	waves     	38	waves05     	384	not_alive	0	moves	1	natural 	1	n	0	0        	 	0.0	0	169.957378100138	170.057369500166	0.0999914000276476
183838	100	85	stimuli/nonmovNat/sand/nmn_sand02.jpg            	1	2	1	nmn_sand02.jpg       	nonmovNat	5	sand      	31	sand02      	311	not_alive	0	still	0	natural 	1	n	0	0        	 	0.0	0	170.107379900059	170.207374700112	0.0999948000535369
183988	100	86	stimuli/movNat/waves/mn_waves06.jpg              	1	2	1	mn_waves06.jpg       	movNat   	3	waves     	38	waves06     	385	not_alive	0	moves	1	natural 	1	n	0	0        	 	0.0	0	170.25738360011	170.357378500048	0.099994899937883
184138	100	87	stimuli/nonmovArt/headphones/nma_headphones07.jpg	1	2	1	nma_headphones07.jpg 	nonmovArt	4	headphones	18	headphones07	186	not_alive	0	still	0	artefact	0	n	0	0        	 	0.0	0	170.407387400046	170.507394300075	0.100006900029257
184288	100	88	stimuli/plant/flower/plant_flower01.jpg          	1	2	1	plant_flower01.jpg   	plant    	6	flower    	16	flower01    	160	alive    	1	still	0	natural 	1	n	0	0        	 	0.0	0	170.557390599977	170.657398000127	0.10000740014948
184438	100	89	stimuli/movArt/bus/ma_bus04.jpg                  	1	2	1	ma_bus04.jpg         	movArt   	2	bus       	3	bus04       	33	not_alive	0	moves	1	artefact	0	n	0	0        	 	0.0	0	170.707416900201	170.807389700087	0.099972799886018
184588	100	90	stimuli/plant/grass/plant_grass10.jpg            	1	2	1	plant_grass10.jpg    	plant    	6	grass     	17	grass10     	179	alive    	1	still	0	natural 	1	n	0	0        	 	0.0	0	170.857399400091	170.957391300006	0.0999918999150395
184738	100	91	stimuli/movArt/bus/ma_bus06.jpg                  	1	2	1	ma_bus06.jpg         	movArt   	2	bus       	3	bus06       	35	not_alive	0	moves	1	artefact	0	n	0	0        	 	0.0	0	171.007419200148	171.107397000073	0.0999777999240905
184888	100	92	stimuli/nonmovNat/rock/nmn_rock02.jpg            	1	2	1	nmn_rock02.jpg       	nonmovNat	5	rock      	30	rock02      	301	not_alive	0	still	0	natural 	1	n	0	0        	 	0.0	0	171.15740850009	171.257401100127	0.099992600036785
185038	100	93	stimuli/plant/tree/plant_tree07.jpg              	1	2	1	plant_tree07.jpg     	plant    	6	tree      	35	tree07      	356	alive    	1	still	0	natural 	1	n	0	0        	 	0.0	0	171.307412200142	171.407403500052	0.0999912999104708
185188	100	94	stimuli/movArt/boat/ma_boat07.jpg                	1	2	1	ma_boat07.jpg        	movArt   	2	boat      	2	boat07      	26	not_alive	0	moves	1	artefact	0	n	0	0        	 	0.0	0	171.457412800053	171.557407400105	0.099994600052014
185338	100	95	stimuli/plant/flower/plant_flower04.jpg          	1	2	1	plant_flower04.jpg   	plant    	6	flower    	16	flower04    	163	alive    	1	still	0	natural 	1	n	0	0        	 	0.0	0	171.60743380012	171.707404100103	0.0999702999833971
185488	100	96	stimuli/animals2/lemur/animal_lemur04.jpg        	1	2	1	animal_lemur04.jpg   	animals2 	1	lemur     	23	lemur04     	233	alive    	1	moves	1	natural 	1	n	0	0        	 	0.0	0	171.757449900033	171.857415700098	0.0999658000655472
185638	100	97	stimuli/animals2/whale/animal_whale10.jpg        	1	2	1	animal_whale10.jpg   	animals2 	1	whale     	39	whale10     	399	alive    	1	moves	1	natural 	1	n	0	0        	 	0.0	0	171.907437900081	172.007430800004	0.099992899922654
185788	100	98	stimuli/plant/tree/plant_tree10.jpg              	1	2	1	plant_tree10.jpg     	plant    	6	tree      	35	tree10      	359	alive    	1	still	0	natural 	1	n	0	0        	 	0.0	0	172.057428600034	172.157460200135	0.10003160010092
185938	100	99	stimuli/movNat/fire/mn_fire07.jpg                	1	2	1	mn_fire07.jpg        	movNat   	3	fire      	15	fire07      	156	not_alive	0	moves	1	natural 	1	n	0	0        	 	0.0	0	172.207431300078	172.307426000014	0.0999946999363601
186088	100	100	stimuli/nonmovArt/clothespeg/nma_clothespeg08.jpg	1	2	1	nma_clothespeg08.jpg 	nonmovArt	4	clothespeg	8	clothespeg08	87	not_alive	0	still	0	artefact	0	n	0	0        	 	0.0	0	172.357443400193	172.45742940018	0.0999859999865294
186238	100	101	stimuli/animals2/pigeon/animal_pigeon06.jpg      	1	2	1	animal_pigeon06.jpg  	animals2 	1	pigeon    	28	pigeon06    	285	alive    	1	moves	1	natural 	1	n	0	0        	 	0.0	0	172.507453600178	172.607443500077	0.0999898998998106
186388	100	102	stimuli/movArt/helicopter/ma_helicopter07.jpg    	1	2	1	ma_helicopter07.jpg  	movArt   	2	helicopter	19	helicopter07	196	not_alive	0	moves	1	artefact	0	n	0	0        	 	0.0	0	172.65744430013	172.757438900182	0.099994600052014
186538	100	103	stimuli/nonmovNat/shell/nmn_shell10.jpg          	1	2	1	nmn_shell10.jpg      	nonmovNat	5	shell     	32	shell10     	329	not_alive	0	still	0	natural 	1	n	0	0        	 	0.0	0	172.807448500069	172.907452100189	0.100003600120544
186688	100	104	stimuli/nonmovArt/mug/nma_mug01.jpg              	1	2	1	nma_mug01.jpg        	nonmovArt	4	mug       	26	mug01       	260	not_alive	0	still	0	artefact	0	n	0	0        	 	0.0	0	172.957449499983	173.057455200003	0.10000570002012
186838	100	105	stimuli/movArt/car/ma_car06.jpg                  	1	2	1	ma_car06.jpg         	movArt   	2	car       	5	car06       	55	not_alive	0	moves	1	artefact	0	n	0	0        	 	0.0	0	173.107456900179	173.207448499976	0.0999915997963399
186988	100	106	stimuli/plant2/palmtree/plant_palmtree05.jpg     	1	2	1	plant_palmtree05.jpg 	plant2   	7	palmtree  	27	palmtree05  	274	alive    	1	still	0	natural 	1	n	0	0        	 	0.0	0	173.257465800038	173.35745000001	0.0999841999728233
187138	100	107	stimuli/plant/vine/plant_vine05.jpg              	1	2	1	plant_vine05.jpg     	plant    	6	vine      	36	vine05      	364	alive    	1	still	0	natural 	1	n	1	0        	 	0.0	0	173.407463900046	173.507457300089	0.0999934000428766
187288	100	108	stimuli/movNat/waterfall/mn_waterfall03.jpg      	1	2	1	mn_waterfall03.jpg   	movNat   	3	waterfall 	37	waterfall03 	372	not_alive	0	moves	1	natural 	1	n	0	1        	a	0.25135809998028	1	173.557464700192	173.657459400129	0.0999946999363601
187438	100	109	stimuli/nonmovNat/cliff/nmn_cliff07.jpg          	1	2	1	nmn_cliff07.jpg      	nonmovNat	5	cliff     	7	cliff07     	76	not_alive	0	still	0	natural 	1	n	0	0        	 	0.0	0	173.707470700145	173.807465400081	0.0999946999363601
187588	100	110	stimuli/movArt/train/ma_train05.jpg              	1	2	1	ma_train05.jpg       	movArt   	2	train     	34	train05     	344	not_alive	0	moves	1	artefact	0	n	0	0        	 	0.0	0	173.857486000052	173.957468600012	0.0999825999606401
187738	100	111	stimuli/nonmovNat/crystal/nmn_crystal02.jpg      	1	2	1	nmn_crystal02.jpg    	nonmovNat	5	crystal   	10	crystal02   	101	not_alive	0	still	0	natural 	1	n	0	0        	 	0.0	0	174.007480400149	174.107469900046	0.0999894998967648
187888	100	112	stimuli/nonmovNat/sand/nmn_sand04.jpg            	1	2	1	nmn_sand04.jpg       	nonmovNat	5	sand      	31	sand04      	313	not_alive	0	still	0	natural 	1	n	0	0        	 	0.0	0	174.157480500173	174.257476400118	0.0999958999454975
188038	100	113	stimuli/plant2/moss/plant_moss04.jpg             	1	2	1	plant_moss04.jpg     	plant2   	7	moss      	25	moss04      	253	alive    	1	still	0	natural 	1	n	0	0        	 	0.0	0	174.307486000005	174.407479000045	0.0999930000398308
188188	100	114	stimuli/plant2/moss/plant_moss10.jpg             	1	2	1	plant_moss10.jpg     	plant2   	7	moss      	25	moss10      	259	alive    	1	still	0	natural 	1	n	0	0        	 	0.0	0	174.457487700041	174.55748190009	0.0999942000489682
188338	100	115	stimuli/nonmovArt/mug/nma_mug09.jpg              	1	2	1	nma_mug09.jpg        	nonmovArt	4	mug       	26	mug09       	268	not_alive	0	still	0	artefact	0	n	0	0        	 	0.0	0	174.60749360011	174.707499100128	0.100005500018597
188488	100	116	stimuli/plant2/clover/plant_clover05.jpg         	1	2	1	plant_clover05.jpg   	plant2   	7	clover    	9	clover05    	94	alive    	1	still	0	natural 	1	n	0	0        	 	0.0	0	174.757499900181	174.85748750018	0.0999875999987125
188638	100	117	stimuli/animals2/tiger/animal_tiger07.jpg        	1	2	1	animal_tiger07.jpg   	animals2 	1	tiger     	33	tiger07     	336	alive    	1	moves	1	natural 	1	n	0	0        	 	0.0	0	174.907507900149	175.00749280001	0.0999848998617381
188788	100	118	stimuli/animals/eagle/animal_eagle07.jpg         	1	2	1	animal_eagle07.jpg   	animals  	0	eagle     	13	eagle07     	136	alive    	1	moves	1	natural 	1	n	0	0        	 	0.0	0	175.057503400138	175.157496400177	0.0999930000398308
188938	100	119	stimuli/animals/dog/animal_dog07.jpg             	1	2	1	animal_dog07.jpg     	animals  	0	dog       	11	dog07       	116	alive    	1	moves	1	natural 	1	n	0	0        	 	0.0	0	175.207509500207	175.307499499992	0.0999899997841567
189088	100	120	stimuli/nonmovNat/crystal/nmn_crystal03.jpg      	1	2	1	nmn_crystal03.jpg    	nonmovNat	5	crystal   	10	crystal03   	102	not_alive	0	still	0	natural 	1	n	0	0        	 	0.0	0	175.3575098	175.457534000045	0.100024200044572
189238	100	121	stimuli/movNat/river/mn_river03.jpg              	1	2	1	mn_river03.jpg       	movNat   	3	river     	29	river03     	292	not_alive	0	moves	1	natural 	1	n	0	0        	 	0.0	0	175.507515500067	175.607507599983	0.0999920999165624
189388	100	122	stimuli/plant2/moss/plant_moss05.jpg             	1	2	1	plant_moss05.jpg     	plant2   	7	moss      	25	moss05      	254	alive    	1	still	0	natural 	1	n	1	0        	 	0.0	0	175.65751629998	175.757511700038	0.0999954000581056
189538	100	123	stimuli/movNat/hotspring/mn_hotspring05.jpg      	1	2	1	mn_hotspring05.jpg   	movNat   	3	hotspring 	21	hotspring05 	214	not_alive	0	moves	1	natural 	1	n	0	0        	 	0.0	0	175.807522100164	175.907525400165	0.100003300001845
189688	100	124	stimuli/plant2/moss/plant_moss02.jpg             	1	2	1	plant_moss02.jpg     	plant2   	7	moss      	25	moss02      	251	alive    	1	still	0	natural 	1	n	0	1        	a	0.292126000160351	1	175.957525599981	176.057538300054	0.100012700073421
189838	100	125	stimuli/animals/horse/animal_horse03.jpg         	1	2	1	animal_horse03.jpg   	animals  	0	horse     	20	horse03     	202	alive    	1	moves	1	natural 	1	n	0	0        	 	0.0	0	176.10753430007	176.20754209999	0.100007799919695
189988	100	126	stimuli/plant2/clover/plant_clover07.jpg         	1	2	1	plant_clover07.jpg   	plant2   	7	clover    	9	clover07    	96	alive    	1	still	0	natural 	1	n	0	0        	 	0.0	0	176.257532400079	176.357539199991	0.10000679991208
190138	100	127	stimuli/plant/tree/plant_tree04.jpg              	1	2	1	plant_tree04.jpg     	plant    	6	tree      	35	tree04      	353	alive    	1	still	0	natural 	1	n	0	0        	 	0.0	0	176.407534900121	176.507528700167	0.0999938000459224
190288	100	128	stimuli/animals/eagle/animal_eagle08.jpg         	1	2	1	animal_eagle08.jpg   	animals  	0	eagle     	13	eagle08     	137	alive    	1	moves	1	natural 	1	n	0	0        	 	0.0	0	176.557548200013	176.65754340007	0.0999952000565827
190438	100	129	stimuli/movArt/car/ma_car05.jpg                  	1	2	1	ma_car05.jpg         	movArt   	2	car       	5	car05       	54	not_alive	0	moves	1	artefact	0	n	0	0        	 	0.0	0	176.707544800127	176.807545500109	0.100000699982047
190588	100	130	stimuli/movArt/boat/ma_boat03.jpg                	1	2	1	ma_boat03.jpg        	movArt   	2	boat      	2	boat03      	22	not_alive	0	moves	1	artefact	0	n	0	0        	 	0.0	0	176.857556700008	176.957551500062	0.0999948000535369
190738	100	131	stimuli/movArt/bus/ma_bus05.jpg                  	1	2	1	ma_bus05.jpg         	movArt   	2	bus       	3	bus05       	34	not_alive	0	moves	1	artefact	0	n	0	0        	 	0.0	0	177.007551500108	177.107545100153	0.0999936000443995
190888	100	132	stimuli/animals/horse/animal_horse08.jpg         	1	2	1	animal_horse08.jpg   	animals  	0	horse     	20	horse08     	207	alive    	1	moves	1	natural 	1	n	0	0        	 	0.0	0	177.15755520016	177.257548100082	0.099992899922654
191038	100	133	stimuli/nonmovNat/rock/nmn_rock08.jpg            	1	2	1	nmn_rock08.jpg       	nonmovNat	5	rock      	30	rock08      	307	not_alive	0	still	0	natural 	1	n	0	0        	 	0.0	0	177.30759680015	177.407549600117	0.0999527999665588
191188	100	134	stimuli/animals/dolphin/animal_dolphin08.jpg     	1	2	1	animal_dolphin08.jpg 	animals  	0	dolphin   	12	dolphin08   	127	alive    	1	moves	1	natural 	1	n	0	0        	 	0.0	0	177.457565400051	177.557569500059	0.100004100007936
191338	100	135	stimuli/plant2/fern/plant_fern04.jpg             	1	2	1	plant_fern04.jpg     	plant2   	7	fern      	14	fern04      	143	alive    	1	still	0	natural 	1	n	0	0        	 	0.0	0	177.607577200048	177.707579100039	0.100001899991184
191488	100	136	stimuli/animals2/lemur/animal_lemur05.jpg        	1	2	1	animal_lemur05.jpg   	animals2 	1	lemur     	23	lemur05     	234	alive    	1	moves	1	natural 	1	n	0	0        	 	0.0	0	177.757572500035	177.857575400034	0.100002899998799
191638	100	137	stimuli/nonmovNat/shell/nmn_shell02.jpg          	1	2	1	nmn_shell02.jpg      	nonmovNat	5	shell     	32	shell02     	321	not_alive	0	still	0	natural 	1	n	0	0        	 	0.0	0	177.90758840018	178.007566400105	0.0999779999256134
191788	100	138	stimuli/animals/dog/animal_dog03.jpg             	1	2	1	animal_dog03.jpg     	animals  	0	dog       	11	dog03       	112	alive    	1	moves	1	natural 	1	n	0	0        	 	0.0	0	178.057604700094	178.157570400042	0.0999656999483705
191938	100	139	stimuli/plant/grass/plant_grass03.jpg            	1	2	1	plant_grass03.jpg    	plant    	6	grass     	17	grass03     	172	alive    	1	still	0	natural 	1	n	0	0        	 	0.0	0	178.207580300048	178.307581100147	0.100000800099224
192088	100	140	stimuli/animals2/bee/animal_bee02.jpg            	1	2	1	animal_bee02.jpg     	animals2 	1	bee       	0	bee02       	1	alive    	1	moves	1	natural 	1	n	0	0        	 	0.0	0	178.357584299985	178.457577800145	0.0999935001600534
192238	100	141	stimuli/animals/cat/animal_cat06.jpg             	1	2	1	animal_cat06.jpg     	animals  	0	cat       	6	cat06       	65	alive    	1	moves	1	natural 	1	n	0	0        	 	0.0	0	178.507586400025	178.607580700191	0.099994300166145
192388	100	142	stimuli/animals2/whale/animal_whale07.jpg        	1	2	1	animal_whale07.jpg   	animals2 	1	whale     	39	whale07     	396	alive    	1	moves	1	natural 	1	n	0	0        	 	0.0	0	178.657589900075	178.757585100131	0.0999952000565827
192538	100	143	stimuli/plant/flower/plant_flower08.jpg          	1	2	1	plant_flower08.jpg   	plant    	6	flower    	16	flower08    	167	alive    	1	still	0	natural 	1	n	0	0        	 	0.0	0	178.807607700117	178.907587400172	0.0999797000549734
192688	100	144	stimuli/nonmovNat/rock/nmn_rock04.jpg            	1	2	1	nmn_rock04.jpg       	nonmovNat	5	rock      	30	rock04      	303	not_alive	0	still	0	natural 	1	n	0	0        	 	0.0	0	178.957597600063	179.057591800112	0.0999942000489682
192838	100	145	stimuli/nonmovNat/shell/nmn_shell02.jpg          	1	2	1	nmn_shell02.jpg      	nonmovNat	5	shell     	32	shell02     	321	not_alive	0	still	0	natural 	1	n	0	0        	 	0.0	0	179.107602000004	179.207598200068	0.0999962000641972
192988	100	146	stimuli/plant/vine/plant_vine05.jpg              	1	2	1	plant_vine05.jpg     	plant    	6	vine      	36	vine05      	364	alive    	1	still	0	natural 	1	n	0	0        	 	0.0	0	179.257607500069	179.35760019999	0.0999926999211311
193138	100	147	stimuli/plant/cactus/plant_cactus09.jpg          	1	2	1	plant_cactus09.jpg   	plant    	6	cactus    	4	cactus09    	48	alive    	1	still	0	natural 	1	n	0	0        	 	0.0	0	179.407623199979	179.507618700154	0.0999955001752824
193288	100	148	stimuli/animals/eagle/animal_eagle07.jpg         	1	2	1	animal_eagle07.jpg   	animals  	0	eagle     	13	eagle07     	136	alive    	1	moves	1	natural 	1	n	1	0        	 	0.0	0	179.557614000048	179.657607100205	0.0999931001570076
193438	100	149	stimuli/animals2/pigeon/animal_pigeon04.jpg      	1	2	1	animal_pigeon04.jpg  	animals2 	1	pigeon    	28	pigeon04    	283	alive    	1	moves	1	natural 	1	n	0	0        	 	0.0	0	179.707627300173	179.807612500153	0.0999851999804378
193588	100	150	stimuli/movNat/waves/mn_waves02.jpg              	1	2	1	mn_waves02.jpg       	movNat   	3	waves     	38	waves02     	381	not_alive	0	moves	1	natural 	1	n	0	1        	a	0.391968300100416	1	179.857620900031	179.957616799977	0.0999958999454975
193738	100	151	stimuli/nonmovArt/bench/nma_bench01.jpg          	1	2	1	nma_bench01.jpg      	nonmovArt	4	bench     	1	bench01     	10	not_alive	0	still	0	artefact	0	n	0	0        	 	0.0	0	180.0076247002	180.107617900008	0.0999931998085231
193888	100	152	stimuli/animals/dolphin/animal_dolphin07.jpg     	1	2	1	animal_dolphin07.jpg 	animals  	0	dolphin   	12	dolphin07   	126	alive    	1	moves	1	natural 	1	n	0	0        	 	0.0	0	180.157628200017	180.257620400051	0.0999922000337392
194038	100	153	stimuli/nonmovArt/headphones/nma_headphones06.jpg	1	2	1	nma_headphones06.jpg 	nonmovArt	4	headphones	18	headphones06	185	not_alive	0	still	0	artefact	0	n	0	0        	 	0.0	0	180.307631500065	180.407624700107	0.0999932000413537
194188	100	154	stimuli/animals2/tiger/animal_tiger02.jpg        	1	2	1	animal_tiger02.jpg   	animals2 	1	tiger     	33	tiger02     	331	alive    	1	moves	1	natural 	1	n	0	0        	 	0.0	0	180.457638000138	180.557636300102	0.0999982999637723
194338	100	155	stimuli/movArt/helicopter/ma_helicopter03.jpg    	1	2	1	ma_helicopter03.jpg  	movArt   	2	helicopter	19	helicopter03	192	not_alive	0	moves	1	artefact	0	n	0	0        	 	0.0	0	180.607638800051	180.70763040008	0.0999916000291705
194488	100	156	stimuli/movArt/train/ma_train09.jpg              	1	2	1	ma_train09.jpg       	movArt   	2	train     	34	train09     	348	not_alive	0	moves	1	artefact	0	n	0	0        	 	0.0	0	180.757651700173	180.85763600003	0.0999842998571694
194638	100	157	stimuli/animals/dolphin/animal_dolphin03.jpg     	1	2	1	animal_dolphin03.jpg 	animals  	0	dolphin   	12	dolphin03   	122	alive    	1	moves	1	natural 	1	n	0	0        	 	0.0	0	180.907655399991	181.007671599975	0.100016199983656
194788	100	158	stimuli/movNat/waterfall/mn_waterfall07.jpg      	1	2	1	mn_waterfall07.jpg   	movNat   	3	waterfall 	37	waterfall07 	376	not_alive	0	moves	1	natural 	1	n	0	0        	 	0.0	0	181.057649100199	181.157642900012	0.0999937998130918
194938	100	159	stimuli/plant2/clover/plant_clover04.jpg         	1	2	1	plant_clover04.jpg   	plant2   	7	clover    	9	clover04    	93	alive    	1	still	0	natural 	1	n	0	0        	 	0.0	0	181.207654300146	181.307647300186	0.0999930000398308
197855	100	160	stimuli/animals/horse/animal_horse06.jpg         	1	3	1	animal_horse06.jpg   	animals  	0	horse     	20	horse06     	205	alive    	1	moves	1	natural 	1	n	0	0        	 	0.0	0	184.124398900196	184.224387300201	0.0999884000048041
198005	100	161	stimuli/movNat/waterfall/mn_waterfall06.jpg      	1	3	1	mn_waterfall06.jpg   	movNat   	3	waterfall 	37	waterfall06 	375	not_alive	0	moves	1	natural 	1	n	0	0        	 	0.0	0	184.274396600202	184.374392500147	0.0999958999454975
198155	100	162	stimuli/nonmovNat/sand/nmn_sand09.jpg            	1	3	1	nmn_sand09.jpg       	nonmovNat	5	sand      	31	sand09      	318	not_alive	0	still	0	natural 	1	n	0	0        	 	0.0	0	184.424414300127	184.524394600186	0.0999803000595421
198305	100	163	stimuli/animals2/tiger/animal_tiger09.jpg        	1	3	1	animal_tiger09.jpg   	animals2 	1	tiger     	33	tiger09     	338	alive    	1	moves	1	natural 	1	n	0	0        	 	0.0	0	184.574403300183	184.674396600109	0.0999932999256998
198455	100	164	stimuli/nonmovNat/cliff/nmn_cliff08.jpg          	1	3	1	nmn_cliff08.jpg      	nonmovNat	5	cliff     	7	cliff08     	77	not_alive	0	still	0	natural 	1	n	0	0        	 	0.0	0	184.724408800015	184.824401500169	0.0999927001539618
198605	100	165	stimuli/nonmovNat/sand/nmn_sand01.jpg            	1	3	1	nmn_sand01.jpg       	nonmovNat	5	sand      	31	sand01      	310	not_alive	0	still	0	natural 	1	n	0	0        	 	0.0	0	184.874411400175	184.974404500099	0.0999930999241769
198755	100	166	stimuli/animals/dog/animal_dog01.jpg             	1	3	1	animal_dog01.jpg     	animals  	0	dog       	11	dog01       	110	alive    	1	moves	1	natural 	1	n	0	0        	 	0.0	0	185.02441329998	185.124414000194	0.100000700214878
198905	100	167	stimuli/nonmovArt/lock/nma_lock10.jpg            	1	3	1	nma_lock10.jpg       	nonmovArt	4	lock      	24	lock10      	249	not_alive	0	still	0	artefact	0	n	0	0        	 	0.0	0	185.174421600066	185.274422400165	0.100000800099224
199055	100	168	stimuli/movArt/bus/ma_bus02.jpg                  	1	3	1	ma_bus02.jpg         	movArt   	2	bus       	3	bus02       	31	not_alive	0	moves	1	artefact	0	n	0	0        	 	0.0	0	185.324422900099	185.424415900139	0.0999930000398308
199205	100	169	stimuli/movNat/hotspring/mn_hotspring06.jpg      	1	3	1	mn_hotspring06.jpg   	movNat   	3	hotspring 	21	hotspring06 	215	not_alive	0	moves	1	natural 	1	n	0	0        	 	0.0	0	185.474427900044	185.574420900084	0.0999930000398308
199355	100	170	stimuli/movNat/fire/mn_fire07.jpg                	1	3	1	mn_fire07.jpg        	movNat   	3	fire      	15	fire07      	156	not_alive	0	moves	1	natural 	1	n	0	0        	 	0.0	0	185.624432499986	185.724424800137	0.099992300150916
199505	100	171	stimuli/movNat/fire/mn_fire09.jpg                	1	3	1	mn_fire09.jpg        	movNat   	3	fire      	15	fire09      	158	not_alive	0	moves	1	natural 	1	n	0	0        	 	0.0	0	185.774434100138	185.874426700175	0.099992600036785
199655	100	172	stimuli/plant/grass/plant_grass09.jpg            	1	3	1	plant_grass09.jpg    	plant    	6	grass     	17	grass09     	178	alive    	1	still	0	natural 	1	n	0	0        	 	0.0	0	185.924435600173	186.024447200121	0.10001159994863
199805	100	173	stimuli/plant2/palmtree/plant_palmtree09.jpg     	1	3	1	plant_palmtree09.jpg 	plant2   	7	palmtree  	27	palmtree09  	278	alive    	1	still	0	natural 	1	n	1	0        	 	0.0	0	186.074442700017	186.17443520017	0.0999925001524389
199955	100	174	stimuli/animals/eagle/animal_eagle02.jpg         	1	3	1	animal_eagle02.jpg   	animals  	0	eagle     	13	eagle02     	131	alive    	1	moves	1	natural 	1	n	0	0        	 	0.0	0	186.224444800056	186.3244361002	0.0999913001433015
200105	100	175	stimuli/movNat/fire/mn_fire06.jpg                	1	3	1	mn_fire06.jpg        	movNat   	3	fire      	15	fire06      	155	not_alive	0	moves	1	natural 	1	n	0	1        	a	0.391981000080705	1	186.374447999988	186.474441600032	0.0999936000443995
200255	100	176	stimuli/animals/cat/animal_cat09.jpg             	1	3	1	animal_cat09.jpg     	animals  	0	cat       	6	cat09       	68	alive    	1	moves	1	natural 	1	n	0	0        	 	0.0	0	186.524451700039	186.624448199989	0.0999964999500662
200405	100	177	stimuli/animals/cat/animal_cat10.jpg             	1	3	1	animal_cat10.jpg     	animals  	0	cat       	6	cat10       	69	alive    	1	moves	1	natural 	1	n	0	0        	 	0.0	0	186.674456400098	186.774489399977	0.100032999878749
200555	100	178	stimuli/nonmovNat/shell/nmn_shell08.jpg          	1	3	1	nmn_shell08.jpg      	nonmovNat	5	shell     	32	shell08     	327	not_alive	0	still	0	natural 	1	n	0	0        	 	0.0	0	186.824460500153	186.92445310019	0.099992600036785
200705	100	179	stimuli/animals2/tiger/animal_tiger01.jpg        	1	3	1	animal_tiger01.jpg   	animals2 	1	tiger     	33	tiger01     	330	alive    	1	moves	1	natural 	1	n	0	0        	 	0.0	0	186.974462400191	187.074466300197	0.100003900006413
200855	100	180	stimuli/nonmovArt/clothespeg/nma_clothespeg03.jpg	1	3	1	nma_clothespeg03.jpg 	nonmovArt	4	clothespeg	8	clothespeg03	82	not_alive	0	still	0	artefact	0	n	0	0        	 	0.0	0	187.124466200126	187.22446050006	0.0999942999333143
201005	100	181	stimuli/plant2/moss/plant_moss08.jpg             	1	3	1	plant_moss08.jpg     	plant2   	7	moss      	25	moss08      	257	alive    	1	still	0	natural 	1	n	0	0        	 	0.0	0	187.274473500205	187.374481500126	0.100007999921218
201155	100	182	stimuli/nonmovArt/headphones/nma_headphones04.jpg	1	3	1	nma_headphones04.jpg 	nonmovArt	4	headphones	18	headphones04	183	not_alive	0	still	0	artefact	0	n	0	0        	 	0.0	0	187.424473799998	187.524488200201	0.100014400202781
201305	100	183	stimuli/plant2/lemontree/plant_lemontree09.jpg   	1	3	1	plant_lemontree09.jpg	plant2   	7	lemontree 	22	lemontree09 	228	alive    	1	still	0	natural 	1	n	0	0        	 	0.0	0	187.574479000177	187.67447279999	0.0999937998130918
201455	100	184	stimuli/animals2/pigeon/animal_pigeon01.jpg      	1	3	1	animal_pigeon01.jpg  	animals2 	1	pigeon    	28	pigeon01    	280	alive    	1	moves	1	natural 	1	n	0	0        	 	0.0	0	187.724484200124	187.824476400157	0.0999922000337392
201605	100	185	stimuli/movArt/helicopter/ma_helicopter04.jpg    	1	3	1	ma_helicopter04.jpg  	movArt   	2	helicopter	19	helicopter04	193	not_alive	0	moves	1	artefact	0	n	0	0        	 	0.0	0	187.874490700196	187.974479500204	0.0999888000078499
201755	100	186	stimuli/plant2/fern/plant_fern02.jpg             	1	3	1	plant_fern02.jpg     	plant2   	7	fern      	14	fern02      	141	alive    	1	still	0	natural 	1	n	0	0        	 	0.0	0	188.024488000199	188.124485200038	0.099997199838981
201905	100	187	stimuli/animals2/bee/animal_bee08.jpg            	1	3	1	animal_bee08.jpg     	animals2 	1	bee       	0	bee08       	7	alive    	1	moves	1	natural 	1	n	0	0        	 	0.0	0	188.174493100028	188.274490500102	0.0999974000733346
202055	100	188	stimuli/plant2/clover/plant_clover03.jpg         	1	3	1	plant_clover03.jpg   	plant2   	7	clover    	9	clover03    	92	alive    	1	still	0	natural 	1	n	1	0        	 	0.0	0	188.324498400092	188.42448980012	0.0999914000276476
202205	100	189	stimuli/plant/cactus/plant_cactus02.jpg          	1	3	1	plant_cactus02.jpg   	plant    	6	cactus    	4	cactus02    	41	alive    	1	still	0	natural 	1	n	0	0        	 	0.0	0	188.474500900134	188.574506200152	0.100005300017074
202355	100	190	stimuli/nonmovArt/headphones/nma_headphones02.jpg	1	3	1	nma_headphones02.jpg 	nonmovArt	4	headphones	18	headphones02	181	not_alive	0	still	0	artefact	0	n	0	1        	a	0.292128199944273	1	188.624549900182	188.724499200005	0.0999492998234928
202505	100	191	stimuli/plant/cactus/plant_cactus07.jpg          	1	3	1	plant_cactus07.jpg   	plant    	6	cactus    	4	cactus07    	46	alive    	1	still	0	natural 	1	n	0	0        	 	0.0	0	188.774532100186	188.874502300052	0.0999701998662204
202655	100	192	stimuli/nonmovArt/bench/nma_bench02.jpg          	1	3	1	nma_bench02.jpg      	nonmovArt	4	bench     	1	bench02     	11	not_alive	0	still	0	artefact	0	n	0	0        	 	0.0	0	188.924510800047	189.024503200082	0.0999924000352621
202805	100	193	stimuli/animals/dog/animal_dog06.jpg             	1	3	1	animal_dog06.jpg     	animals  	0	dog       	11	dog06       	115	alive    	1	moves	1	natural 	1	n	0	0        	 	0.0	0	189.07451559999	189.17450910015	0.0999935001600534
202955	100	194	stimuli/nonmovArt/mug/nma_mug08.jpg              	1	3	1	nma_mug08.jpg        	nonmovArt	4	mug       	26	mug08       	267	not_alive	0	still	0	artefact	0	n	0	0        	 	0.0	0	189.224533200031	189.324511100072	0.0999779000412673
203105	100	195	stimuli/nonmovArt/lock/nma_lock01.jpg            	1	3	1	nma_lock01.jpg       	nonmovArt	4	lock      	24	lock01      	240	not_alive	0	still	0	artefact	0	n	0	0        	 	0.0	0	189.374546900159	189.474515800131	0.0999688999727368
203255	100	196	stimuli/movNat/waves/mn_waves07.jpg              	1	3	1	mn_waves07.jpg       	movNat   	3	waves     	38	waves07     	386	not_alive	0	moves	1	natural 	1	n	0	0        	 	0.0	0	189.524529400049	189.624522899976	0.0999934999272227
203405	100	197	stimuli/plant/vine/plant_vine04.jpg              	1	3	1	plant_vine04.jpg     	plant    	6	vine      	36	vine04      	363	alive    	1	still	0	natural 	1	n	0	0        	 	0.0	0	189.674530000193	189.774522599997	0.0999925998039544
203555	100	198	stimuli/plant/grass/plant_grass09.jpg            	1	3	1	plant_grass09.jpg    	plant    	6	grass     	17	grass09     	178	alive    	1	still	0	natural 	1	n	0	0        	 	0.0	0	189.824543400202	189.924527900061	0.0999844998586923
203705	100	199	stimuli/nonmovNat/rock/nmn_rock08.jpg            	1	3	1	nmn_rock08.jpg       	nonmovNat	5	rock      	30	rock08      	307	not_alive	0	still	0	natural 	1	n	0	0        	 	0.0	0	189.974536800059	190.074531699996	0.099994899937883
203855	100	200	stimuli/movNat/river/mn_river08.jpg              	1	3	1	mn_river08.jpg       	movNat   	3	river     	29	river08     	297	not_alive	0	moves	1	natural 	1	n	0	0        	 	0.0	0	190.124551200075	190.224534600042	0.0999833999667317
204005	100	201	stimuli/nonmovArt/mug/nma_mug07.jpg              	1	3	1	nma_mug07.jpg        	nonmovArt	4	mug       	26	mug07       	266	not_alive	0	still	0	artefact	0	n	0	0        	 	0.0	0	190.274546000175	190.374537700089	0.0999916999135166
204155	100	202	stimuli/movArt/boat/ma_boat08.jpg                	1	3	1	ma_boat08.jpg        	movArt   	2	boat      	2	boat08      	27	not_alive	0	moves	1	artefact	0	n	0	0        	 	0.0	0	190.424549299991	190.524542800151	0.0999935001600534
204305	100	203	stimuli/nonmovArt/lock/nma_lock01.jpg            	1	3	1	nma_lock01.jpg       	nonmovArt	4	lock      	24	lock01      	240	not_alive	0	still	0	artefact	0	n	0	0        	 	0.0	0	190.57455190015	190.674557200167	0.100005300017074
204455	100	204	stimuli/movArt/helicopter/ma_helicopter08.jpg    	1	3	1	ma_helicopter08.jpg  	movArt   	2	helicopter	19	helicopter08	197	not_alive	0	moves	1	artefact	0	n	0	0        	 	0.0	0	190.724573200103	190.82454880001	0.0999755999073386
204605	100	205	stimuli/movArt/train/ma_train10.jpg              	1	3	1	ma_train10.jpg       	movArt   	2	train     	34	train10     	349	not_alive	0	moves	1	artefact	0	n	0	0        	 	0.0	0	190.874568900093	190.974551300053	0.0999823999591172
204755	100	206	stimuli/animals2/pigeon/animal_pigeon10.jpg      	1	3	1	animal_pigeon10.jpg  	animals2 	1	pigeon    	28	pigeon10    	289	alive    	1	moves	1	natural 	1	n	0	0        	 	0.0	0	191.024562300183	191.124558100011	0.0999957998283207
204905	100	207	stimuli/nonmovNat/crystal/nmn_crystal09.jpg      	1	3	1	nmn_crystal09.jpg    	nonmovNat	5	crystal   	10	crystal09   	108	not_alive	0	still	0	natural 	1	n	0	0        	 	0.0	0	191.174565300113	191.274560000049	0.0999946999363601
205055	100	208	stimuli/plant2/palmtree/plant_palmtree04.jpg     	1	3	1	plant_palmtree04.jpg 	plant2   	7	palmtree  	27	palmtree04  	273	alive    	1	still	0	natural 	1	n	0	0        	 	0.0	0	191.324569500051	191.424562700093	0.0999932000413537
205205	100	209	stimuli/nonmovNat/crystal/nmn_crystal10.jpg      	1	3	1	nmn_crystal10.jpg    	nonmovNat	5	crystal   	10	crystal10   	109	not_alive	0	still	0	natural 	1	n	0	0        	 	0.0	0	191.474574499996	191.574568300042	0.0999938000459224
205355	100	210	stimuli/movArt/car/ma_car02.jpg                  	1	3	1	ma_car02.jpg         	movArt   	2	car       	5	car02       	51	not_alive	0	moves	1	artefact	0	n	1	0        	 	0.0	0	191.624577800045	191.724569100188	0.0999913001433015
205505	100	211	stimuli/animals2/whale/animal_whale05.jpg        	1	3	1	animal_whale05.jpg   	animals2 	1	whale     	39	whale05     	394	alive    	1	moves	1	natural 	1	n	0	1        	a	0.24196740007028	1	191.774580300087	191.874574700138	0.0999944000504911
205655	100	212	stimuli/movNat/hotspring/mn_hotspring08.jpg      	1	3	1	mn_hotspring08.jpg   	movNat   	3	hotspring 	21	hotspring08 	217	not_alive	0	moves	1	natural 	1	n	0	0        	 	0.0	0	191.924585100031	192.024590700166	0.100005600135773
205805	100	213	stimuli/movNat/waves/mn_waves01.jpg              	1	3	1	mn_waves01.jpg       	movNat   	3	waves     	38	waves01     	380	not_alive	0	moves	1	natural 	1	n	0	0        	 	0.0	0	192.074590400094	192.174580699997	0.0999902999028564
205955	100	214	stimuli/nonmovArt/mug/nma_mug05.jpg              	1	3	1	nma_mug05.jpg        	nonmovArt	4	mug       	26	mug05       	264	not_alive	0	still	0	artefact	0	n	0	0        	 	0.0	0	192.224591200007	192.324615300167	0.100024100160226
206105	100	215	stimuli/movArt/train/ma_train01.jpg              	1	3	1	ma_train01.jpg       	movArt   	2	train     	34	train01     	340	not_alive	0	moves	1	artefact	0	n	0	0        	 	0.0	0	192.374597400194	192.474590600003	0.0999931998085231
206255	100	216	stimuli/movArt/boat/ma_boat09.jpg                	1	3	1	ma_boat09.jpg        	movArt   	2	boat      	2	boat09      	28	not_alive	0	moves	1	artefact	0	n	0	0        	 	0.0	0	192.524599600118	192.624604800018	0.100005199899897
206405	100	217	stimuli/plant/flower/plant_flower05.jpg          	1	3	1	plant_flower05.jpg   	plant    	6	flower    	16	flower05    	164	alive    	1	still	0	natural 	1	n	0	0        	 	0.0	0	192.674603200052	192.77459860011	0.0999954000581056
206555	100	218	stimuli/animals2/bee/animal_bee10.jpg            	1	3	1	animal_bee10.jpg     	animals2 	1	bee       	0	bee10       	9	alive    	1	moves	1	natural 	1	n	0	0        	 	0.0	0	192.824607700109	192.924613800133	0.100006100023165
206705	100	219	stimuli/plant/tree/plant_tree03.jpg              	1	3	1	plant_tree03.jpg     	plant    	6	tree      	35	tree03      	352	alive    	1	still	0	natural 	1	n	0	0        	 	0.0	0	192.974612500053	193.074626300018	0.100013799965382
206855	100	220	stimuli/movArt/bus/ma_bus05.jpg                  	1	3	1	ma_bus05.jpg         	movArt   	2	bus       	3	bus05       	34	not_alive	0	moves	1	artefact	0	n	0	0        	 	0.0	0	193.124615299981	193.224608300021	0.0999930000398308
207005	100	221	stimuli/plant/flower/plant_flower09.jpg          	1	3	1	plant_flower09.jpg   	plant    	6	flower    	16	flower09    	168	alive    	1	still	0	natural 	1	n	0	0        	 	0.0	0	193.274619500153	193.37461210019	0.099992600036785
207155	100	222	stimuli/nonmovNat/sand/nmn_sand04.jpg            	1	3	1	nmn_sand04.jpg       	nonmovNat	5	sand      	31	sand04      	313	not_alive	0	still	0	natural 	1	n	0	0        	 	0.0	0	193.424622000195	193.524616100127	0.0999940999317914
207305	100	223	stimuli/movNat/river/mn_river04.jpg              	1	3	1	mn_river04.jpg       	movNat   	3	river     	29	river04     	293	not_alive	0	moves	1	natural 	1	n	0	0        	 	0.0	0	193.574625300011	193.674624500098	0.0999992000870407
207455	100	224	stimuli/nonmovNat/cliff/nmn_cliff05.jpg          	1	3	1	nmn_cliff05.jpg      	nonmovNat	5	cliff     	7	cliff05     	74	not_alive	0	still	0	natural 	1	n	0	0        	 	0.0	0	193.724630100187	193.824634700082	0.100004599895328
207605	100	225	stimuli/animals2/lemur/animal_lemur04.jpg        	1	3	1	animal_lemur04.jpg   	animals2 	1	lemur     	23	lemur04     	233	alive    	1	moves	1	natural 	1	n	0	0        	 	0.0	0	193.87463350012	193.974626300158	0.0999928000383079
207755	100	226	stimuli/movArt/car/ma_car02.jpg                  	1	3	1	ma_car02.jpg         	movArt   	2	car       	5	car02       	51	not_alive	0	moves	1	artefact	0	n	0	0        	 	0.0	0	194.024645300116	194.124632500112	0.0999871999956667
207905	100	227	stimuli/plant2/lemontree/plant_lemontree03.jpg   	1	3	1	plant_lemontree03.jpg	plant2   	7	lemontree 	22	lemontree03 	222	alive    	1	still	0	natural 	1	n	1	0        	 	0.0	0	194.174669200089	194.274635700043	0.099966499954462
208055	100	228	stimuli/plant2/lemontree/plant_lemontree02.jpg   	1	3	1	plant_lemontree02.jpg	plant2   	7	lemontree 	22	lemontree02 	221	alive    	1	still	0	natural 	1	n	0	1        	a	0.258122599916533	1	194.324643500149	194.424659200013	0.100015699863434
208205	100	229	stimuli/nonmovArt/bench/nma_bench04.jpg          	1	3	1	nma_bench04.jpg      	nonmovArt	4	bench     	1	bench04     	13	not_alive	0	still	0	artefact	0	n	0	0        	 	0.0	0	194.474660200067	194.574640200008	0.0999799999408424
208355	100	230	stimuli/plant/tree/plant_tree08.jpg              	1	3	1	plant_tree08.jpg     	plant    	6	tree      	35	tree08      	357	alive    	1	still	0	natural 	1	n	0	0        	 	0.0	0	194.624655100051	194.72464670008	0.0999916000291705
208505	100	231	stimuli/plant/vine/plant_vine02.jpg              	1	3	1	plant_vine02.jpg     	plant    	6	vine      	36	vine02      	361	alive    	1	still	0	natural 	1	n	0	0        	 	0.0	0	194.774671000196	194.874648200115	0.0999771999195218
208655	100	232	stimuli/animals2/whale/animal_whale07.jpg        	1	3	1	animal_whale07.jpg   	animals2 	1	whale     	39	whale07     	396	alive    	1	moves	1	natural 	1	n	0	0        	 	0.0	0	194.924685999984	195.024651500164	0.0999655001796782
208805	100	233	stimuli/animals2/lemur/animal_lemur02.jpg        	1	3	1	animal_lemur02.jpg   	animals2 	1	lemur     	23	lemur02     	231	alive    	1	moves	1	natural 	1	n	0	0        	 	0.0	0	195.074664000189	195.174666500185	0.100002499995753
208955	100	234	stimuli/nonmovNat/cliff/nmn_cliff04.jpg          	1	3	1	nmn_cliff04.jpg      	nonmovNat	5	cliff     	7	cliff04     	73	not_alive	0	still	0	natural 	1	n	0	0        	 	0.0	0	195.224666000111	195.324660000158	0.0999940000474453
209105	100	235	stimuli/nonmovArt/clothespeg/nma_clothespeg10.jpg	1	3	1	nma_clothespeg10.jpg 	nonmovArt	4	clothespeg	8	clothespeg10	89	not_alive	0	still	0	artefact	0	n	0	0        	 	0.0	0	195.374669800047	195.47466320009	0.0999934000428766
209255	100	236	stimuli/plant2/palmtree/plant_palmtree03.jpg     	1	3	1	plant_palmtree03.jpg 	plant2   	7	palmtree  	27	palmtree03  	272	alive    	1	still	0	natural 	1	n	0	0        	 	0.0	0	195.524675199995	195.624678499997	0.100003300001845
209405	100	237	stimuli/movNat/waterfall/mn_waterfall08.jpg      	1	3	1	mn_waterfall08.jpg   	movNat   	3	waterfall 	37	waterfall08 	377	not_alive	0	moves	1	natural 	1	n	0	0        	 	0.0	0	195.674686199985	195.774664700031	0.099978500045836
209555	100	238	stimuli/plant2/fern/plant_fern09.jpg             	1	3	1	plant_fern09.jpg     	plant2   	7	fern      	14	fern09      	148	alive    	1	still	0	natural 	1	n	0	0        	 	0.0	0	195.824673100142	195.92466940009	0.0999962999485433
209705	100	239	stimuli/nonmovArt/clothespeg/nma_clothespeg02.jpg	1	3	1	nma_clothespeg02.jpg 	nonmovArt	4	clothespeg	8	clothespeg02	81	not_alive	0	still	0	artefact	0	n	0	0        	 	0.0	0	195.974679500097	196.074672500137	0.0999930000398308
211622	100	240	stimuli/nonmovArt/mug/nma_mug07.jpg              	1	4	1	nma_mug07.jpg        	nonmovArt	4	mug       	26	mug07       	266	not_alive	0	still	0	artefact	0	n	0	0        	 	0.0	0	197.891404200112	197.991424000124	0.100019800011069
211772	100	241	stimuli/nonmovArt/bench/nma_bench05.jpg          	1	4	1	nma_bench05.jpg      	nonmovArt	4	bench     	1	bench05     	14	not_alive	0	still	0	artefact	0	n	0	0        	 	0.0	0	198.041415499989	198.141396200052	0.0999807000625879
211922	100	242	stimuli/plant2/clover/plant_clover01.jpg         	1	4	1	plant_clover01.jpg   	plant2   	7	clover    	9	clover01    	90	alive    	1	still	0	natural 	1	n	0	0        	 	0.0	0	198.191416800022	198.291400199989	0.0999833999667317
212072	100	243	stimuli/movNat/river/mn_river01.jpg              	1	4	1	mn_river01.jpg       	movNat   	3	river     	29	river01     	290	not_alive	0	moves	1	natural 	1	n	0	0        	 	0.0	0	198.341409899993	198.441403300036	0.0999934000428766
212222	100	244	stimuli/nonmovNat/shell/nmn_shell01.jpg          	1	4	1	nmn_shell01.jpg      	nonmovNat	5	shell     	32	shell01     	320	not_alive	0	still	0	natural 	1	n	0	0        	 	0.0	0	198.491414800053	198.591424500104	0.100009700050578
212372	100	245	stimuli/plant/grass/plant_grass06.jpg            	1	4	1	plant_grass06.jpg    	plant    	6	grass     	17	grass06     	175	alive    	1	still	0	natural 	1	n	0	0        	 	0.0	0	198.641418900108	198.741423500003	0.100004599895328
212522	100	246	stimuli/movArt/boat/ma_boat03.jpg                	1	4	1	ma_boat03.jpg        	movArt   	2	boat      	2	boat03      	22	not_alive	0	moves	1	artefact	0	n	0	0        	 	0.0	0	198.791421300033	198.891413000179	0.0999917001463473
212672	100	247	stimuli/plant2/fern/plant_fern05.jpg             	1	4	1	plant_fern05.jpg     	plant2   	7	fern      	14	fern05      	144	alive    	1	still	0	natural 	1	n	0	0        	 	0.0	0	198.941436300054	199.041419500019	0.0999831999652088
212822	100	248	stimuli/plant2/palmtree/plant_palmtree10.jpg     	1	4	1	plant_palmtree10.jpg 	plant2   	7	palmtree  	27	palmtree10  	279	alive    	1	still	0	natural 	1	n	0	0        	 	0.0	0	199.091464100173	199.191422500182	0.0999584000092
212972	100	249	stimuli/nonmovArt/lock/nma_lock07.jpg            	1	4	1	nma_lock07.jpg       	nonmovArt	4	lock      	24	lock07      	246	not_alive	0	still	0	artefact	0	n	0	0        	 	0.0	0	199.241431200178	199.341436000075	0.100004799896851
213122	100	250	stimuli/nonmovNat/sand/nmn_sand02.jpg            	1	4	1	nmn_sand02.jpg       	nonmovNat	5	sand      	31	sand02      	311	not_alive	0	still	0	natural 	1	n	0	0        	 	0.0	0	199.391437300015	199.491432500072	0.0999952000565827
213272	100	251	stimuli/nonmovArt/clothespeg/nma_clothespeg09.jpg	1	4	1	nma_clothespeg09.jpg 	nonmovArt	4	clothespeg	8	clothespeg09	88	not_alive	0	still	0	artefact	0	n	0	0        	 	0.0	0	199.541441700188	199.64143269998	0.0999909997917712
213422	100	252	stimuli/plant2/clover/plant_clover05.jpg         	1	4	1	plant_clover05.jpg   	plant2   	7	clover    	9	clover05    	94	alive    	1	still	0	natural 	1	n	0	0        	 	0.0	0	199.691459000111	199.791430599987	0.0999715998768806
213572	100	253	stimuli/movArt/train/ma_train06.jpg              	1	4	1	ma_train06.jpg       	movArt   	2	train     	34	train06     	345	not_alive	0	moves	1	artefact	0	n	0	0        	 	0.0	0	199.841473400127	199.94143970008	0.0999662999529392
213722	100	254	stimuli/plant2/moss/plant_moss10.jpg             	1	4	1	plant_moss10.jpg     	plant2   	7	moss      	25	moss10      	259	alive    	1	still	0	natural 	1	n	0	0        	 	0.0	0	199.991449200083	200.091443300014	0.0999940999317914
213872	100	255	stimuli/movNat/fire/mn_fire01.jpg                	1	4	1	mn_fire01.jpg        	movNat   	3	fire      	15	fire01      	150	not_alive	0	moves	1	natural 	1	n	0	0        	 	0.0	0	200.141464400105	200.241445500171	0.0999811000656336
214022	100	256	stimuli/nonmovNat/rock/nmn_rock07.jpg            	1	4	1	nmn_rock07.jpg       	nonmovNat	5	rock      	30	rock07      	306	not_alive	0	still	0	natural 	1	n	0	0        	 	0.0	0	200.291459400207	200.391454000026	0.0999945998191834
214172	100	257	stimuli/nonmovNat/cliff/nmn_cliff01.jpg          	1	4	1	nmn_cliff01.jpg      	nonmovNat	5	cliff     	7	cliff01     	70	not_alive	0	still	0	natural 	1	n	0	1        	a	0.0	0	200.441480800044	200.54145720019	0.0999764001462609
214322	100	258	stimuli/movNat/hotspring/mn_hotspring06.jpg      	1	4	1	mn_hotspring06.jpg   	movNat   	3	hotspring 	21	hotspring06 	215	not_alive	0	moves	1	natural 	1	n	0	0        	 	0.0	0	200.5914830002	200.691469900077	0.0999868998769671
214472	100	259	stimuli/nonmovNat/rock/nmn_rock02.jpg            	1	4	1	nmn_rock02.jpg       	nonmovNat	5	rock      	30	rock02      	301	not_alive	0	still	0	natural 	1	n	0	0        	 	0.0	0	200.741469200002	200.841461400036	0.0999922000337392
214622	100	260	stimuli/animals2/whale/animal_whale05.jpg        	1	4	1	animal_whale05.jpg   	animals2 	1	whale     	39	whale05     	394	alive    	1	moves	1	natural 	1	n	0	0        	 	0.0	0	200.891472800169	200.991479000077	0.100006199907511
214772	100	261	stimuli/nonmovArt/bench/nma_bench03.jpg          	1	4	1	nma_bench03.jpg      	nonmovArt	4	bench     	1	bench03     	12	not_alive	0	still	0	artefact	0	n	0	0        	 	0.0	0	201.041477600113	201.14146850002	0.099990899907425
214922	100	262	stimuli/movNat/fire/mn_fire05.jpg                	1	4	1	mn_fire05.jpg        	movNat   	3	fire      	15	fire05      	154	not_alive	0	moves	1	natural 	1	n	0	0        	 	0.0	0	201.191487099975	201.291475299979	0.0999882000032812
215072	100	263	stimuli/plant/tree/plant_tree02.jpg              	1	4	1	plant_tree02.jpg     	plant    	6	tree      	35	tree02      	351	alive    	1	still	0	natural 	1	n	0	0        	 	0.0	0	201.341487500118	201.441475400003	0.0999878998845816
215222	100	264	stimuli/movNat/waves/mn_waves08.jpg              	1	4	1	mn_waves08.jpg       	movNat   	3	waves     	38	waves08     	387	not_alive	0	moves	1	natural 	1	n	0	0        	 	0.0	0	201.49149470008	201.59148040018	0.0999857001006603
215372	100	265	stimuli/plant/grass/plant_grass02.jpg            	1	4	1	plant_grass02.jpg    	plant    	6	grass     	17	grass02     	171	alive    	1	still	0	natural 	1	n	0	0        	 	0.0	0	201.641490100184	201.741485400125	0.0999952999409288
215522	100	266	stimuli/movArt/car/ma_car10.jpg                  	1	4	1	ma_car10.jpg         	movArt   	2	car       	5	car10       	59	not_alive	0	moves	1	artefact	0	n	0	0        	 	0.0	0	201.791494000005	201.891488600057	0.099994600052014
215672	100	267	stimuli/plant/cactus/plant_cactus10.jpg          	1	4	1	plant_cactus10.jpg   	plant    	6	cactus    	4	cactus10    	49	alive    	1	still	0	natural 	1	n	0	0        	 	0.0	0	201.941503399983	202.041492100107	0.0999887001235038
215822	100	268	stimuli/nonmovArt/bench/nma_bench01.jpg          	1	4	1	nma_bench01.jpg      	nonmovArt	4	bench     	1	bench01     	10	not_alive	0	still	0	artefact	0	n	0	0        	 	0.0	0	202.091504300013	202.191494500032	0.0999902000185102
215972	100	269	stimuli/animals2/tiger/animal_tiger08.jpg        	1	4	1	animal_tiger08.jpg   	animals2 	1	tiger     	33	tiger08     	337	alive    	1	moves	1	natural 	1	n	0	0        	 	0.0	0	202.241505700164	202.341499400092	0.0999936999287456
216122	100	270	stimuli/nonmovNat/crystal/nmn_crystal08.jpg      	1	4	1	nmn_crystal08.jpg    	nonmovNat	5	crystal   	10	crystal08   	107	not_alive	0	still	0	natural 	1	n	0	0        	 	0.0	0	202.391510100104	202.491504100151	0.0999940000474453
216272	100	271	stimuli/animals/eagle/animal_eagle10.jpg         	1	4	1	animal_eagle10.jpg   	animals  	0	eagle     	13	eagle10     	139	alive    	1	moves	1	natural 	1	n	0	0        	 	0.0	0	202.541515000164	202.641507600201	0.099992600036785
216422	100	272	stimuli/movNat/river/mn_river02.jpg              	1	4	1	mn_river02.jpg       	movNat   	3	river     	29	river02     	291	not_alive	0	moves	1	natural 	1	n	0	0        	 	0.0	0	202.691516900202	202.791529400041	0.100012499839067
216572	100	273	stimuli/nonmovArt/clothespeg/nma_clothespeg03.jpg	1	4	1	nma_clothespeg03.jpg 	nonmovArt	4	clothespeg	8	clothespeg03	82	not_alive	0	still	0	artefact	0	n	0	0        	 	0.0	0	202.841518400004	202.941515200073	0.0999968000687659
216722	100	274	stimuli/movArt/bus/ma_bus08.jpg                  	1	4	1	ma_bus08.jpg         	movArt   	2	bus       	3	bus08       	37	not_alive	0	moves	1	artefact	0	n	0	0        	 	0.0	0	202.9915258002	203.091519400012	0.0999935998115689
216872	100	275	stimuli/plant2/lemontree/plant_lemontree10.jpg   	1	4	1	plant_lemontree10.jpg	plant2   	7	lemontree 	22	lemontree10 	229	alive    	1	still	0	natural 	1	n	0	0        	 	0.0	0	203.141541199991	203.24152130005	0.0999801000580192
217022	100	276	stimuli/animals/dolphin/animal_dolphin08.jpg     	1	4	1	animal_dolphin08.jpg 	animals  	0	dolphin   	12	dolphin08   	127	alive    	1	moves	1	natural 	1	n	0	0        	 	0.0	0	203.291532500181	203.391524000093	0.0999914999119937
217172	100	277	stimuli/animals/horse/animal_horse09.jpg         	1	4	1	animal_horse09.jpg   	animals  	0	horse     	20	horse09     	208	alive    	1	moves	1	natural 	1	n	0	0        	 	0.0	0	203.441535199992	203.541557000019	0.100021800026298
217322	100	278	stimuli/movArt/car/ma_car01.jpg                  	1	4	1	ma_car01.jpg         	movArt   	2	car       	5	car01       	50	not_alive	0	moves	1	artefact	0	n	0	0        	 	0.0	0	203.591538900044	203.691532400204	0.0999935001600534
217472	100	279	stimuli/nonmovArt/clothespeg/nma_clothespeg04.jpg	1	4	1	nma_clothespeg04.jpg 	nonmovArt	4	clothespeg	8	clothespeg04	83	not_alive	0	still	0	artefact	0	n	0	0        	 	0.0	0	203.741545299999	203.84154020017	0.0999949001707137
217622	100	280	stimuli/nonmovArt/mug/nma_mug10.jpg              	1	4	1	nma_mug10.jpg        	nonmovArt	4	mug       	26	mug10       	269	not_alive	0	still	0	artefact	0	n	0	0        	 	0.0	0	203.891545500141	203.991541400086	0.0999958999454975
217772	100	281	stimuli/animals/dolphin/animal_dolphin05.jpg     	1	4	1	animal_dolphin05.jpg 	animals  	0	dolphin   	12	dolphin05   	124	alive    	1	moves	1	natural 	1	n	0	0        	 	0.0	0	204.041551700095	204.14156200015	0.100010300055146
217922	100	282	stimuli/movNat/waterfall/mn_waterfall04.jpg      	1	4	1	mn_waterfall04.jpg   	movNat   	3	waterfall 	37	waterfall04 	373	not_alive	0	moves	1	natural 	1	n	0	0        	 	0.0	0	204.191553300014	204.291550600203	0.0999973001889884
218072	100	283	stimuli/animals2/bee/animal_bee07.jpg            	1	4	1	animal_bee07.jpg     	animals2 	1	bee       	0	bee07       	6	alive    	1	moves	1	natural 	1	n	0	0        	 	0.0	0	204.341558600077	204.441549299983	0.0999906999059022
218222	100	284	stimuli/animals2/pigeon/animal_pigeon08.jpg      	1	4	1	animal_pigeon08.jpg  	animals2 	1	pigeon    	28	pigeon08    	287	alive    	1	moves	1	natural 	1	n	0	0        	 	0.0	0	204.491563800024	204.59155550017	0.0999917001463473
218372	100	285	stimuli/animals/horse/animal_horse10.jpg         	1	4	1	animal_horse10.jpg   	animals  	0	horse     	20	horse10     	209	alive    	1	moves	1	natural 	1	n	0	0        	 	0.0	0	204.64158340008	204.741559300106	0.0999759000260383
218522	100	286	stimuli/plant2/moss/plant_moss10.jpg             	1	4	1	plant_moss10.jpg     	plant2   	7	moss      	25	moss10      	259	alive    	1	still	0	natural 	1	n	0	0        	 	0.0	0	204.791568899993	204.891573200002	0.100004300009459
218672	100	287	stimuli/animals/eagle/animal_eagle06.jpg         	1	4	1	animal_eagle06.jpg   	animals  	0	eagle     	13	eagle06     	135	alive    	1	moves	1	natural 	1	n	0	0        	 	0.0	0	204.941565599991	205.041587000014	0.100021400023252
218822	100	288	stimuli/animals2/lemur/animal_lemur07.jpg        	1	4	1	animal_lemur07.jpg   	animals2 	1	lemur     	23	lemur07     	236	alive    	1	moves	1	natural 	1	n	0	0        	 	0.0	0	205.091577300103	205.191598500125	0.100021200021729
218972	100	289	stimuli/movNat/waterfall/mn_waterfall04.jpg      	1	4	1	mn_waterfall04.jpg   	movNat   	3	waterfall 	37	waterfall04 	373	not_alive	0	moves	1	natural 	1	n	0	0        	 	0.0	0	205.241578400135	205.341572000179	0.0999936000443995
219122	100	290	stimuli/plant/vine/plant_vine01.jpg              	1	4	1	plant_vine01.jpg     	plant    	6	vine      	36	vine01      	360	alive    	1	still	0	natural 	1	n	0	0        	 	0.0	0	205.391612400068	205.491577100009	0.099964699940756
219272	100	291	stimuli/nonmovNat/crystal/nmn_crystal09.jpg      	1	4	1	nmn_crystal09.jpg    	nonmovNat	5	crystal   	10	crystal09   	108	not_alive	0	still	0	natural 	1	n	0	0        	 	0.0	0	205.541598600103	205.641586400103	0.0999878000002354
219422	100	292	stimuli/animals2/pigeon/animal_pigeon01.jpg      	1	4	1	animal_pigeon01.jpg  	animals2 	1	pigeon    	28	pigeon01    	280	alive    	1	moves	1	natural 	1	n	0	0        	 	0.0	0	205.691625300096	205.791583900107	0.0999586000107229
219572	100	293	stimuli/nonmovArt/headphones/nma_headphones06.jpg	1	4	1	nma_headphones06.jpg 	nonmovArt	4	headphones	18	headphones06	185	not_alive	0	still	0	artefact	0	n	1	0        	 	0.0	0	205.841596200131	205.941611600108	0.100015399977565
219722	100	294	stimuli/nonmovNat/sand/nmn_sand05.jpg            	1	4	1	nmn_sand05.jpg       	nonmovNat	5	sand      	31	sand05      	314	not_alive	0	still	0	natural 	1	n	0	0        	 	0.0	0	205.991621300112	206.091591200093	0.0999698999803513
219872	100	295	stimuli/movArt/train/ma_train03.jpg              	1	4	1	ma_train03.jpg       	movArt   	2	train     	34	train03     	342	not_alive	0	moves	1	artefact	0	n	0	1        	a	0.391983699984848	1	206.141621500021	206.241596800042	0.0999753000214696
220022	100	296	stimuli/animals2/lemur/animal_lemur06.jpg        	1	4	1	animal_lemur06.jpg   	animals2 	1	lemur     	23	lemur06     	235	alive    	1	moves	1	natural 	1	n	0	0        	 	0.0	0	206.291607800173	206.391601999989	0.0999941998161376
220172	100	297	stimuli/nonmovNat/cliff/nmn_cliff01.jpg          	1	4	1	nmn_cliff01.jpg      	nonmovNat	5	cliff     	7	cliff01     	70	not_alive	0	still	0	natural 	1	n	0	0        	 	0.0	0	206.441634500166	206.541603000136	0.099968499969691
220322	100	298	stimuli/movNat/hotspring/mn_hotspring09.jpg      	1	4	1	mn_hotspring09.jpg   	movNat   	3	hotspring 	21	hotspring09 	218	not_alive	0	moves	1	natural 	1	n	0	0        	 	0.0	0	206.591624800116	206.691631700145	0.100006900029257
220472	100	299	stimuli/nonmovArt/lock/nma_lock03.jpg            	1	4	1	nma_lock03.jpg       	nonmovArt	4	lock      	24	lock03      	242	not_alive	0	still	0	artefact	0	n	0	0        	 	0.0	0	206.741632300196	206.841623699991	0.099991399794817
220622	100	300	stimuli/animals2/lemur/animal_lemur02.jpg        	1	4	1	animal_lemur02.jpg   	animals2 	1	lemur     	23	lemur02     	231	alive    	1	moves	1	natural 	1	n	1	0        	 	0.0	0	206.891634700121	206.991612400161	0.0999777000397444
220772	100	301	stimuli/nonmovArt/headphones/nma_headphones06.jpg	1	4	1	nma_headphones06.jpg 	nonmovArt	4	headphones	18	headphones06	185	not_alive	0	still	0	artefact	0	n	0	0        	 	0.0	0	207.041625700193	207.141618000111	0.0999922999180853
220922	100	302	stimuli/animals2/tiger/animal_tiger06.jpg        	1	4	1	animal_tiger06.jpg   	animals2 	1	tiger     	33	tiger06     	335	alive    	1	moves	1	natural 	1	n	0	1        	a	0.391980899963528	1	207.191653300077	207.29162270017	0.0999694000929594
221072	100	303	stimuli/plant2/fern/plant_fern08.jpg             	1	4	1	plant_fern08.jpg     	plant2   	7	fern      	14	fern08      	147	alive    	1	still	0	natural 	1	n	0	0        	 	0.0	0	207.34163410007	207.441625599982	0.0999914999119937
221222	100	304	stimuli/movNat/river/mn_river09.jpg              	1	4	1	mn_river09.jpg       	movNat   	3	river     	29	river09     	298	not_alive	0	moves	1	natural 	1	n	0	0        	 	0.0	0	207.491636499995	207.591629700037	0.0999932000413537
221372	100	305	stimuli/movArt/train/ma_train05.jpg              	1	4	1	ma_train05.jpg       	movArt   	2	train     	34	train05     	344	not_alive	0	moves	1	artefact	0	n	0	0        	 	0.0	0	207.641637500143	207.741631800076	0.0999942999333143
221522	100	306	stimuli/animals2/tiger/animal_tiger01.jpg        	1	4	1	animal_tiger01.jpg   	animals2 	1	tiger     	33	tiger01     	330	alive    	1	moves	1	natural 	1	n	0	0        	 	0.0	0	207.791643900098	207.891637600027	0.0999936999287456
221672	100	307	stimuli/animals2/whale/animal_whale08.jpg        	1	4	1	animal_whale08.jpg   	animals2 	1	whale     	39	whale08     	397	alive    	1	moves	1	natural 	1	n	0	0        	 	0.0	0	207.941646100022	208.041642300086	0.0999962000641972
221822	100	308	stimuli/plant/cactus/plant_cactus10.jpg          	1	4	1	plant_cactus10.jpg   	plant    	6	cactus    	4	cactus10    	49	alive    	1	still	0	natural 	1	n	0	0        	 	0.0	0	208.091650700197	208.191642299993	0.0999915997963399
221972	100	309	stimuli/animals/dog/animal_dog08.jpg             	1	4	1	animal_dog08.jpg     	animals  	0	dog       	11	dog08       	117	alive    	1	moves	1	natural 	1	n	0	0        	 	0.0	0	208.241654200014	208.341651600087	0.0999974000733346
222122	100	310	stimuli/plant2/fern/plant_fern05.jpg             	1	4	1	plant_fern05.jpg     	plant2   	7	fern      	14	fern05      	144	alive    	1	still	0	natural 	1	n	0	0        	 	0.0	0	208.391672600061	208.491650999989	0.0999783999286592
222272	100	311	stimuli/movNat/waves/mn_waves06.jpg              	1	4	1	mn_waves06.jpg       	movNat   	3	waves     	38	waves06     	385	not_alive	0	moves	1	natural 	1	n	0	0        	 	0.0	0	208.541662800126	208.641656000167	0.0999932000413537
222422	100	312	stimuli/movArt/car/ma_car06.jpg                  	1	4	1	ma_car06.jpg         	movArt   	2	car       	5	car06       	55	not_alive	0	moves	1	artefact	0	n	0	0        	 	0.0	0	208.691666100174	208.791660200106	0.0999940999317914
222572	100	313	stimuli/plant/flower/plant_flower03.jpg          	1	4	1	plant_flower03.jpg   	plant    	6	flower    	16	flower03    	162	alive    	1	still	0	natural 	1	n	0	0        	 	0.0	0	208.841668799985	208.941664200043	0.0999954000581056
222722	100	314	stimuli/plant2/palmtree/plant_palmtree07.jpg     	1	4	1	plant_palmtree07.jpg 	plant2   	7	palmtree  	27	palmtree07  	276	alive    	1	still	0	natural 	1	n	0	0        	 	0.0	0	208.991671100026	209.091695400188	0.100024300161749
222872	100	315	stimuli/nonmovNat/shell/nmn_shell10.jpg          	1	4	1	nmn_shell10.jpg      	nonmovNat	5	shell     	32	shell10     	329	not_alive	0	still	0	natural 	1	n	0	0        	 	0.0	0	209.141678299988	209.241668700008	0.0999904000200331
223022	100	316	stimuli/plant/tree/plant_tree10.jpg              	1	4	1	plant_tree10.jpg     	plant    	6	tree      	35	tree10      	359	alive    	1	still	0	natural 	1	n	0	0        	 	0.0	0	209.291692700004	209.391681800131	0.0999891001265496
223172	100	317	stimuli/plant/vine/plant_vine10.jpg              	1	4	1	plant_vine10.jpg     	plant    	6	vine      	36	vine10      	369	alive    	1	still	0	natural 	1	n	0	0        	 	0.0	0	209.441684500081	209.541687700199	0.100003200117499
223322	100	318	stimuli/animals/eagle/animal_eagle03.jpg         	1	4	1	animal_eagle03.jpg   	animals  	0	eagle     	13	eagle03     	132	alive    	1	moves	1	natural 	1	n	0	0        	 	0.0	0	209.591687600128	209.69169700006	0.100009399931878
223472	100	319	stimuli/animals/cat/animal_cat07.jpg             	1	4	1	animal_cat07.jpg     	animals  	0	cat       	6	cat07       	66	alive    	1	moves	1	natural 	1	n	0	0        	 	0.0	0	209.741690500174	209.841711200075	0.100020699901506
226522	100	320	stimuli/animals2/bee/animal_bee09.jpg            	1	5	1	animal_bee09.jpg     	animals2 	1	bee       	0	bee09       	8	alive    	1	moves	1	natural 	1	n	0	0        	 	0.0	0	212.791769900126	212.891759700142	0.0999898000154644
226672	100	321	stimuli/movArt/boat/ma_boat04.jpg                	1	5	1	ma_boat04.jpg        	movArt   	2	boat      	2	boat04      	23	not_alive	0	moves	1	artefact	0	n	0	0        	 	0.0	0	212.941767400131	213.041765599977	0.0999981998465955
226822	100	322	stimuli/animals/dog/animal_dog07.jpg             	1	5	1	animal_dog07.jpg     	animals  	0	dog       	11	dog07       	116	alive    	1	moves	1	natural 	1	n	0	0        	 	0.0	0	213.09177509998	213.19176860014	0.0999935001600534
226972	100	323	stimuli/movNat/fire/mn_fire05.jpg                	1	5	1	mn_fire05.jpg        	movNat   	3	fire      	15	fire05      	154	not_alive	0	moves	1	natural 	1	n	0	0        	 	0.0	0	213.241780900164	213.341783500044	0.100002599880099
227123	100	324	stimuli/nonmovNat/crystal/nmn_crystal02.jpg      	1	5	1	nmn_crystal02.jpg    	nonmovNat	5	crystal   	10	crystal02   	101	not_alive	0	still	0	natural 	1	n	0	0        	 	0.0	0	213.391792400042	213.491774500115	0.0999821000732482
227272	100	325	stimuli/animals/cat/animal_cat10.jpg             	1	5	1	animal_cat10.jpg     	animals  	0	cat       	6	cat10       	69	alive    	1	moves	1	natural 	1	n	0	0        	 	0.0	0	213.54178300011	213.641778400168	0.0999954000581056
227423	100	326	stimuli/plant2/moss/plant_moss08.jpg             	1	5	1	plant_moss08.jpg     	plant2   	7	moss      	25	moss08      	257	alive    	1	still	0	natural 	1	n	0	0        	 	0.0	0	213.69179050019	213.791780600091	0.0999900999013334
227573	100	327	stimuli/nonmovArt/lock/nma_lock02.jpg            	1	5	1	nma_lock02.jpg       	nonmovArt	4	lock      	24	lock02      	241	not_alive	0	still	0	artefact	0	n	0	0        	 	0.0	0	213.841793200001	213.941781900125	0.0999887001235038
227723	100	328	stimuli/nonmovNat/cliff/nmn_cliff08.jpg          	1	5	1	nmn_cliff08.jpg      	nonmovNat	5	cliff     	7	cliff08     	77	not_alive	0	still	0	natural 	1	n	0	0        	 	0.0	0	213.991794600151	214.091817100067	0.100022499915212
227873	100	329	stimuli/movArt/boat/ma_boat04.jpg                	1	5	1	ma_boat04.jpg        	movArt   	2	boat      	2	boat04      	23	not_alive	0	moves	1	artefact	0	n	0	0        	 	0.0	0	214.141797500197	214.241818899987	0.100021399790421
228023	100	330	stimuli/movArt/bus/ma_bus10.jpg                  	1	5	1	ma_bus10.jpg         	movArt   	2	bus       	3	bus10       	39	not_alive	0	moves	1	artefact	0	n	0	0        	 	0.0	0	214.29180230014	214.391795600066	0.0999932999256998
228173	100	331	stimuli/movNat/waves/mn_waves09.jpg              	1	5	1	mn_waves09.jpg       	movNat   	3	waves     	38	waves09     	388	not_alive	0	moves	1	natural 	1	n	0	0        	 	0.0	0	214.441808000207	214.541796900099	0.0999888998921961
228323	100	332	stimuli/nonmovArt/mug/nma_mug05.jpg              	1	5	1	nma_mug05.jpg        	nonmovArt	4	mug       	26	mug05       	264	not_alive	0	still	0	artefact	0	n	0	0        	 	0.0	0	214.591821300099	214.691819400061	0.0999980999622494
228473	100	333	stimuli/nonmovNat/sand/nmn_sand05.jpg            	1	5	1	nmn_sand05.jpg       	nonmovNat	5	sand      	31	sand05      	314	not_alive	0	still	0	natural 	1	n	1	0        	 	0.0	0	214.741812000051	214.841823500115	0.100011500064284
228623	100	334	stimuli/animals/dog/animal_dog02.jpg             	1	5	1	animal_dog02.jpg     	animals  	0	dog       	11	dog02       	111	alive    	1	moves	1	natural 	1	n	0	0        	 	0.0	0	214.891818300122	214.991810800042	0.0999924999196082
228773	100	335	stimuli/plant2/lemontree/plant_lemontree01.jpg   	1	5	1	plant_lemontree01.jpg	plant2   	7	lemontree 	22	lemontree01 	220	alive    	1	still	0	natural 	1	n	0	1        	a	0.391986000118777	1	215.041823300067	215.141813800205	0.0999905001372099
228923	100	336	stimuli/movNat/hotspring/mn_hotspring07.jpg      	1	5	1	mn_hotspring07.jpg   	movNat   	3	hotspring 	21	hotspring07 	216	not_alive	0	moves	1	natural 	1	n	0	0        	 	0.0	0	215.19184370013	215.29182280018	0.0999791000504047
229073	100	337	stimuli/nonmovNat/shell/nmn_shell07.jpg          	1	5	1	nmn_shell07.jpg      	nonmovNat	5	shell     	32	shell07     	326	not_alive	0	still	0	natural 	1	n	0	0        	 	0.0	0	215.341831200058	215.441849400057	0.100018199998885
229223	100	338	stimuli/plant2/clover/plant_clover07.jpg         	1	5	1	plant_clover07.jpg   	plant2   	7	clover    	9	clover07    	96	alive    	1	still	0	natural 	1	n	0	0        	 	0.0	0	215.491833999986	215.591838099994	0.100004100007936
229373	100	339	stimuli/movArt/helicopter/ma_helicopter01.jpg    	1	5	1	ma_helicopter01.jpg  	movArt   	2	helicopter	19	helicopter01	190	not_alive	0	moves	1	artefact	0	n	0	0        	 	0.0	0	215.641835700022	215.741825500038	0.0999898000154644
229523	100	340	stimuli/plant/flower/plant_flower10.jpg          	1	5	1	plant_flower10.jpg   	plant    	6	flower    	16	flower10    	169	alive    	1	still	0	natural 	1	n	0	0        	 	0.0	0	215.79184160009	215.891833000118	0.0999914000276476
229673	100	341	stimuli/animals/cat/animal_cat05.jpg             	1	5	1	animal_cat05.jpg     	animals  	0	cat       	6	cat05       	64	alive    	1	moves	1	natural 	1	n	0	0        	 	0.0	0	215.94185120007	216.041836100165	0.0999849000945687
229823	100	342	stimuli/movArt/helicopter/ma_helicopter10.jpg    	1	5	1	ma_helicopter10.jpg  	movArt   	2	helicopter	19	helicopter10	199	not_alive	0	moves	1	artefact	0	n	0	0        	 	0.0	0	216.091846700059	216.191846500151	0.0999998000916094
229973	100	343	stimuli/plant/vine/plant_vine09.jpg              	1	5	1	plant_vine09.jpg     	plant    	6	vine      	36	vine09      	368	alive    	1	still	0	natural 	1	n	0	0        	 	0.0	0	216.241852200124	216.341841100017	0.0999888998921961
230123	100	344	stimuli/nonmovArt/headphones/nma_headphones05.jpg	1	5	1	nma_headphones05.jpg 	nonmovArt	4	headphones	18	headphones05	184	not_alive	0	still	0	artefact	0	n	0	0        	 	0.0	0	216.391853700159	216.491882900009	0.100029199849814
230273	100	345	stimuli/nonmovNat/rock/nmn_rock07.jpg            	1	5	1	nmn_rock07.jpg       	nonmovNat	5	rock      	30	rock07      	306	not_alive	0	still	0	natural 	1	n	0	0        	 	0.0	0	216.541884700069	216.641853600042	0.0999688999727368
230423	100	346	stimuli/movNat/waterfall/mn_waterfall08.jpg      	1	5	1	mn_waterfall08.jpg   	movNat   	3	waterfall 	37	waterfall08 	377	not_alive	0	moves	1	natural 	1	n	0	0        	 	0.0	0	216.691882600076	216.791855800198	0.0999732001218945
230573	100	347	stimuli/plant/flower/plant_flower07.jpg          	1	5	1	plant_flower07.jpg   	plant    	6	flower    	16	flower07    	166	alive    	1	still	0	natural 	1	n	0	0        	 	0.0	0	216.841865500202	216.941859300015	0.0999937998130918
230723	100	348	stimuli/animals/dolphin/animal_dolphin01.jpg     	1	5	1	animal_dolphin01.jpg 	animals  	0	dolphin   	12	dolphin01   	120	alive    	1	moves	1	natural 	1	n	0	0        	 	0.0	0	216.991875000065	217.091864500195	0.0999895001295954
230873	100	349	stimuli/plant2/lemontree/plant_lemontree05.jpg   	1	5	1	plant_lemontree05.jpg	plant2   	7	lemontree 	22	lemontree05 	224	alive    	1	still	0	natural 	1	n	0	1        	a	0.0	0	217.141871900065	217.241885200143	0.10001330007799
231023	100	350	stimuli/animals2/whale/animal_whale03.jpg        	1	5	1	animal_whale03.jpg   	animals2 	1	whale     	39	whale03     	392	alive    	1	moves	1	natural 	1	n	0	0        	 	0.0	0	217.29189270013	217.391883800039	0.0999910999089479
231173	100	351	stimuli/movArt/bus/ma_bus05.jpg                  	1	5	1	ma_bus05.jpg         	movArt   	2	bus       	3	bus05       	34	not_alive	0	moves	1	artefact	0	n	0	0        	 	0.0	0	217.441906800028	217.541887700092	0.0999809000641108
231323	100	352	stimuli/plant/cactus/plant_cactus08.jpg          	1	5	1	plant_cactus08.jpg   	plant    	6	cactus    	4	cactus08    	47	alive    	1	still	0	natural 	1	n	0	0        	 	0.0	0	217.591896899976	217.691891300026	0.0999944000504911
231473	100	353	stimuli/plant/grass/plant_grass08.jpg            	1	5	1	plant_grass08.jpg    	plant    	6	grass     	17	grass08     	177	alive    	1	still	0	natural 	1	n	0	0        	 	0.0	0	217.741902500158	217.841896000085	0.0999934999272227
231623	100	354	stimuli/animals2/pigeon/animal_pigeon05.jpg      	1	5	1	animal_pigeon05.jpg  	animals2 	1	pigeon    	28	pigeon05    	284	alive    	1	moves	1	natural 	1	n	0	0        	 	0.0	0	217.891908799997	217.991897300119	0.0999885001219809
231773	100	355	stimuli/animals2/bee/animal_bee02.jpg            	1	5	1	animal_bee02.jpg     	animals2 	1	bee       	0	bee02       	1	alive    	1	moves	1	natural 	1	n	0	0        	 	0.0	0	218.041909400141	218.141904000193	0.099994600052014
231923	100	356	stimuli/plant/tree/plant_tree09.jpg              	1	5	1	plant_tree09.jpg     	plant    	6	tree      	35	tree09      	358	alive    	1	still	0	natural 	1	n	0	0        	 	0.0	0	218.191911900183	218.291909700027	0.0999977998435497
232073	100	357	stimuli/animals/horse/animal_horse06.jpg         	1	5	1	animal_horse06.jpg   	animals  	0	horse     	20	horse06     	205	alive    	1	moves	1	natural 	1	n	0	0        	 	0.0	0	218.34192060004	218.441909600049	0.0999890000093728
232223	100	358	stimuli/movArt/helicopter/ma_helicopter07.jpg    	1	5	1	ma_helicopter07.jpg  	movArt   	2	helicopter	19	helicopter07	196	not_alive	0	moves	1	artefact	0	n	0	0        	 	0.0	0	218.491925399983	218.591912799981	0.0999873999971896
232373	100	359	stimuli/plant2/palmtree/plant_palmtree01.jpg     	1	5	1	plant_palmtree01.jpg 	plant2   	7	palmtree  	27	palmtree01  	270	alive    	1	still	0	natural 	1	n	0	0        	 	0.0	0	218.641922099981	218.741916500032	0.0999944000504911
232523	100	360	stimuli/animals2/whale/animal_whale01.jpg        	1	5	1	animal_whale01.jpg   	animals2 	1	whale     	39	whale01     	390	alive    	1	moves	1	natural 	1	n	0	0        	 	0.0	0	218.791925300146	218.891897300025	0.0999719998799264
232673	100	361	stimuli/nonmovArt/mug/nma_mug06.jpg              	1	5	1	nma_mug06.jpg        	nonmovArt	4	mug       	26	mug06       	265	not_alive	0	still	0	artefact	0	n	0	0        	 	0.0	0	218.941931199981	219.041928700171	0.0999975001905114
232823	100	362	stimuli/movArt/boat/ma_boat05.jpg                	1	5	1	ma_boat05.jpg        	movArt   	2	boat      	2	boat05      	24	not_alive	0	moves	1	artefact	0	n	0	0        	 	0.0	0	219.091936900048	219.191938800039	0.100001899991184
232973	100	363	stimuli/movArt/boat/ma_boat09.jpg                	1	5	1	ma_boat09.jpg        	movArt   	2	boat      	2	boat09      	28	not_alive	0	moves	1	artefact	0	n	0	0        	 	0.0	0	219.241938200081	219.341930299997	0.0999920999165624
233123	100	364	stimuli/movArt/car/ma_car06.jpg                  	1	5	1	ma_car06.jpg         	movArt   	2	car       	5	car06       	55	not_alive	0	moves	1	artefact	0	n	0	0        	 	0.0	0	219.391941000009	219.491937000072	0.0999960000626743
233273	100	365	stimuli/plant/grass/plant_grass04.jpg            	1	5	1	plant_grass04.jpg    	plant    	6	grass     	17	grass04     	173	alive    	1	still	0	natural 	1	n	0	0        	 	0.0	0	219.541944300057	219.6419377001	0.0999934000428766
233423	100	366	stimuli/plant/vine/plant_vine04.jpg              	1	5	1	plant_vine04.jpg     	plant    	6	vine      	36	vine04      	363	alive    	1	still	0	natural 	1	n	0	0        	 	0.0	0	219.691948299995	219.791946000187	0.0999977001920342
233573	100	367	stimuli/plant/tree/plant_tree08.jpg              	1	5	1	plant_tree08.jpg     	plant    	6	tree      	35	tree08      	357	alive    	1	still	0	natural 	1	n	0	0        	 	0.0	0	219.841952800052	219.941947000101	0.0999942000489682
233723	100	368	stimuli/movNat/river/mn_river02.jpg              	1	5	1	mn_river02.jpg       	movNat   	3	river     	29	river02     	291	not_alive	0	moves	1	natural 	1	n	1	0        	 	0.0	0	219.991961100139	220.09195520007	0.0999940999317914
233873	100	369	stimuli/movNat/fire/mn_fire09.jpg                	1	5	1	mn_fire09.jpg        	movNat   	3	fire      	15	fire09      	158	not_alive	0	moves	1	natural 	1	n	0	0        	 	0.0	0	220.141960400157	220.241955999983	0.0999955998267978
234023	100	370	stimuli/nonmovArt/lock/nma_lock03.jpg            	1	5	1	nma_lock03.jpg       	nonmovArt	4	lock      	24	lock03      	242	not_alive	0	still	0	artefact	0	n	0	1        	a	0.300183899933472	1	220.291965600103	220.391958800144	0.0999932000413537
234173	100	371	stimuli/plant2/moss/plant_moss03.jpg             	1	5	1	plant_moss03.jpg     	plant2   	7	moss      	25	moss03      	252	alive    	1	still	0	natural 	1	n	0	0        	 	0.0	0	220.441967700142	220.541964099975	0.0999963998328894
234323	100	372	stimuli/nonmovNat/sand/nmn_sand06.jpg            	1	5	1	nmn_sand06.jpg       	nonmovNat	5	sand      	31	sand06      	315	not_alive	0	still	0	natural 	1	n	0	0        	 	0.0	0	220.59197310009	220.691977200098	0.100004100007936
234473	100	373	stimuli/plant2/moss/plant_moss09.jpg             	1	5	1	plant_moss09.jpg     	plant2   	7	moss      	25	moss09      	258	alive    	1	still	0	natural 	1	n	0	0        	 	0.0	0	220.741955900099	220.841968400171	0.100012500071898
234623	100	374	stimuli/nonmovArt/headphones/nma_headphones03.jpg	1	5	1	nma_headphones03.jpg 	nonmovArt	4	headphones	18	headphones03	182	not_alive	0	still	0	artefact	0	n	0	0        	 	0.0	0	220.891981300199	220.991981000174	0.0999996999744326
234773	100	375	stimuli/animals2/tiger/animal_tiger02.jpg        	1	5	1	animal_tiger02.jpg   	animals2 	1	tiger     	33	tiger02     	331	alive    	1	moves	1	natural 	1	n	0	0        	 	0.0	0	221.041982900118	221.141999100102	0.100016199983656
234923	100	376	stimuli/nonmovArt/mug/nma_mug09.jpg              	1	5	1	nma_mug09.jpg        	nonmovArt	4	mug       	26	mug09       	268	not_alive	0	still	0	artefact	0	n	0	0        	 	0.0	0	221.191987800179	221.291983700125	0.0999958999454975
235073	100	377	stimuli/movArt/train/ma_train06.jpg              	1	5	1	ma_train06.jpg       	movArt   	2	train     	34	train06     	345	not_alive	0	moves	1	artefact	0	n	0	0        	 	0.0	0	221.341991099995	221.441984100034	0.0999930000398308
235223	100	378	stimuli/animals2/lemur/animal_lemur01.jpg        	1	5	1	animal_lemur01.jpg   	animals2 	1	lemur     	23	lemur01     	230	alive    	1	moves	1	natural 	1	n	0	0        	 	0.0	0	221.491996000055	221.591988899978	0.099992899922654
235373	100	379	stimuli/plant/cactus/plant_cactus04.jpg          	1	5	1	plant_cactus04.jpg   	plant    	6	cactus    	4	cactus04    	43	alive    	1	still	0	natural 	1	n	0	0        	 	0.0	0	221.641997900093	221.74199190014	0.0999940000474453
235523	100	380	stimuli/plant2/palmtree/plant_palmtree10.jpg     	1	5	1	plant_palmtree10.jpg 	plant2   	7	palmtree  	27	palmtree10  	279	alive    	1	still	0	natural 	1	n	0	0        	 	0.0	0	221.791999200126	221.891998799983	0.0999995998572558
235673	100	381	stimuli/plant2/clover/plant_clover10.jpg         	1	5	1	plant_clover10.jpg   	plant2   	7	clover    	9	clover10    	99	alive    	1	still	0	natural 	1	n	0	0        	 	0.0	0	221.942004600074	222.041999000125	0.0999944000504911
235823	100	382	stimuli/animals/dog/animal_dog09.jpg             	1	5	1	animal_dog09.jpg     	animals  	0	dog       	11	dog09       	118	alive    	1	moves	1	natural 	1	n	0	0        	 	0.0	0	222.092026600149	222.192003900185	0.0999773000366986
235973	100	383	stimuli/movNat/river/mn_river08.jpg              	1	5	1	mn_river08.jpg       	movNat   	3	river     	29	river08     	297	not_alive	0	moves	1	natural 	1	n	0	0        	 	0.0	0	222.242024800042	222.342007900123	0.0999831000808626
236123	100	384	stimuli/animals2/bee/animal_bee01.jpg            	1	5	1	animal_bee01.jpg     	animals2 	1	bee       	0	bee01       	0	alive    	1	moves	1	natural 	1	n	0	0        	 	0.0	0	222.392015099991	222.492008300032	0.0999932000413537
236273	100	385	stimuli/movNat/fire/mn_fire10.jpg                	1	5	1	mn_fire10.jpg        	movNat   	3	fire      	15	fire10      	159	not_alive	0	moves	1	natural 	1	n	0	0        	 	0.0	0	222.542031400139	222.642013200093	0.0999817999545485
236423	100	386	stimuli/movNat/hotspring/mn_hotspring10.jpg      	1	5	1	mn_hotspring10.jpg   	movNat   	3	hotspring 	21	hotspring10 	219	not_alive	0	moves	1	natural 	1	n	0	0        	 	0.0	0	222.69202590012	222.792016400024	0.0999904999043792
236573	100	387	stimuli/movArt/bus/ma_bus01.jpg                  	1	5	1	ma_bus01.jpg         	movArt   	2	bus       	3	bus01       	30	not_alive	0	moves	1	artefact	0	n	0	0        	 	0.0	0	222.842032400193	222.942021500086	0.099989099893719
236723	100	388	stimuli/nonmovArt/mug/nma_mug10.jpg              	1	5	1	nma_mug10.jpg        	nonmovArt	4	mug       	26	mug10       	269	not_alive	0	still	0	artefact	0	n	0	0        	 	0.0	0	222.992032099981	223.092029800173	0.0999977001920342
236873	100	389	stimuli/movNat/waves/mn_waves10.jpg              	1	5	1	mn_waves10.jpg       	movNat   	3	waves     	38	waves10     	389	not_alive	0	moves	1	natural 	1	n	0	0        	 	0.0	0	223.142035900149	223.242027900182	0.0999920000322163
237023	100	390	stimuli/animals2/pigeon/animal_pigeon10.jpg      	1	5	1	animal_pigeon10.jpg  	animals2 	1	pigeon    	28	pigeon10    	289	alive    	1	moves	1	natural 	1	n	0	0        	 	0.0	0	223.292040400207	223.392041800078	0.100001399870962
237173	100	391	stimuli/animals/dolphin/animal_dolphin04.jpg     	1	5	1	animal_dolphin04.jpg 	animals  	0	dolphin   	12	dolphin04   	123	alive    	1	moves	1	natural 	1	n	0	0        	 	0.0	0	223.442041700007	223.542035800172	0.0999941001646221
237323	100	392	stimuli/plant2/lemontree/plant_lemontree04.jpg   	1	5	1	plant_lemontree04.jpg	plant2   	7	lemontree 	22	lemontree04 	223	alive    	1	still	0	natural 	1	n	0	0        	 	0.0	0	223.592046900187	223.692041600123	0.0999946999363601
237473	100	393	stimuli/plant2/palmtree/plant_palmtree01.jpg     	1	5	1	plant_palmtree01.jpg 	plant2   	7	palmtree  	27	palmtree01  	270	alive    	1	still	0	natural 	1	n	0	0        	 	0.0	0	223.742050900124	223.842042000033	0.0999910999089479
237623	100	394	stimuli/plant2/palmtree/plant_palmtree07.jpg     	1	5	1	plant_palmtree07.jpg 	plant2   	7	palmtree  	27	palmtree07  	276	alive    	1	still	0	natural 	1	n	0	0        	 	0.0	0	223.892053400166	223.992046599975	0.0999931998085231
237773	100	395	stimuli/plant/vine/plant_vine06.jpg              	1	5	1	plant_vine06.jpg     	plant    	6	vine      	36	vine06      	365	alive    	1	still	0	natural 	1	n	0	0        	 	0.0	0	224.04205769999	224.142048200127	0.0999905001372099
237923	100	396	stimuli/plant2/moss/plant_moss06.jpg             	1	5	1	plant_moss06.jpg     	plant2   	7	moss      	25	moss06      	255	alive    	1	still	0	natural 	1	n	0	0        	 	0.0	0	224.192063900176	224.292055400088	0.0999914999119937
238073	100	397	stimuli/plant/grass/plant_grass05.jpg            	1	5	1	plant_grass05.jpg    	plant    	6	grass     	17	grass05     	174	alive    	1	still	0	natural 	1	n	0	0        	 	0.0	0	224.342065900099	224.442046500044	0.0999805999454111
238223	100	398	stimuli/nonmovNat/crystal/nmn_crystal04.jpg      	1	5	1	nmn_crystal04.jpg    	nonmovNat	5	crystal   	10	crystal04   	103	not_alive	0	still	0	natural 	1	n	0	0        	 	0.0	0	224.492067200132	224.592062500073	0.0999952999409288
238373	100	399	stimuli/nonmovNat/shell/nmn_shell06.jpg          	1	5	1	nmn_shell06.jpg      	nonmovNat	5	shell     	32	shell06     	325	not_alive	0	still	0	natural 	1	n	0	0        	 	0.0	0	224.642073800089	224.742064299993	0.0999904999043792
240523	100	400	stimuli/animals/horse/animal_horse02.jpg         	1	6	1	animal_horse02.jpg   	animals  	0	horse     	20	horse02     	201	alive    	1	moves	1	natural 	1	n	0	0        	 	0.0	0	226.792137600016	226.892105200095	0.0999676000792533
240673	100	401	stimuli/movArt/car/ma_car04.jpg                  	1	6	1	ma_car04.jpg         	movArt   	2	car       	5	car04       	53	not_alive	0	moves	1	artefact	0	n	0	0        	 	0.0	0	226.942113600206	227.042109000031	0.0999953998252749
240823	100	402	stimuli/animals2/pigeon/animal_pigeon03.jpg      	1	6	1	animal_pigeon03.jpg  	animals2 	1	pigeon    	28	pigeon03    	282	alive    	1	moves	1	natural 	1	n	0	0        	 	0.0	0	227.09211810003	227.192113100085	0.0999950000550598
240973	100	403	stimuli/movArt/bus/ma_bus01.jpg                  	1	6	1	ma_bus01.jpg         	movArt   	2	bus       	3	bus01       	30	not_alive	0	moves	1	artefact	0	n	0	0        	 	0.0	0	227.242122300202	227.342115700012	0.099993399810046
241123	100	404	stimuli/nonmovArt/bench/nma_bench06.jpg          	1	6	1	nma_bench06.jpg      	nonmovArt	4	bench     	1	bench06     	15	not_alive	0	still	0	artefact	0	n	0	0        	 	0.0	0	227.392142600147	227.492137300083	0.0999946999363601
241273	100	405	stimuli/animals2/lemur/animal_lemur06.jpg        	1	6	1	animal_lemur06.jpg   	animals2 	1	lemur     	23	lemur06     	235	alive    	1	moves	1	natural 	1	n	0	0        	 	0.0	0	227.54215610004	227.64212370012	0.0999676000792533
241423	100	406	stimuli/plant2/lemontree/plant_lemontree02.jpg   	1	6	1	plant_lemontree02.jpg	plant2   	7	lemontree 	22	lemontree02 	221	alive    	1	still	0	natural 	1	n	0	0        	 	0.0	0	227.692135300022	227.792127400171	0.0999921001493931
241573	100	407	stimuli/animals2/pigeon/animal_pigeon03.jpg      	1	6	1	animal_pigeon03.jpg  	animals2 	1	pigeon    	28	pigeon03    	282	alive    	1	moves	1	natural 	1	n	0	0        	 	0.0	0	227.842139400076	227.942129400093	0.0999900000169873
241723	100	408	stimuli/nonmovArt/headphones/nma_headphones03.jpg	1	6	1	nma_headphones03.jpg 	nonmovArt	4	headphones	18	headphones03	182	not_alive	0	still	0	artefact	0	n	0	0        	 	0.0	0	227.99214300001	228.092136900174	0.0999939001630992
241873	100	409	stimuli/movNat/waterfall/mn_waterfall03.jpg      	1	6	1	mn_waterfall03.jpg   	movNat   	3	waterfall 	37	waterfall03 	372	not_alive	0	moves	1	natural 	1	n	0	0        	 	0.0	0	228.142150900094	228.242138599977	0.0999876998830587
242023	100	410	stimuli/nonmovArt/lock/nma_lock04.jpg            	1	6	1	nma_lock04.jpg       	nonmovArt	4	lock      	24	lock04      	243	not_alive	0	still	0	artefact	0	n	0	0        	 	0.0	0	228.292173700174	228.392140300013	0.0999665998388082
242173	100	411	stimuli/nonmovArt/bench/nma_bench07.jpg          	1	6	1	nma_bench07.jpg      	nonmovArt	4	bench     	1	bench07     	16	not_alive	0	still	0	artefact	0	n	0	0        	 	0.0	0	228.442152700154	228.542153800139	0.100001099985093
242323	100	412	stimuli/animals/horse/animal_horse03.jpg         	1	6	1	animal_horse03.jpg   	animals  	0	horse     	20	horse03     	202	alive    	1	moves	1	natural 	1	n	0	0        	 	0.0	0	228.592156700091	228.692149700131	0.0999930000398308
