onset	duration	eventnumber	stimulus_file	blockno	trialno	is_faststream	stim	stim_category	category_number	exemplar	exemplar_number	image_name	image_number	aliveness	aliveness_bin	movement	movement_bin	naturalness	naturalness_bin	response_hand_alive	istarget	response	keypressed	rt	correct	time_stimon	time_stimoff	stimdur
28754	100	0	stimuli/nonmovArt/mug/nma_mug05.jpg              	1	1	1	nma_mug05.jpg        	nonmovArt	4	mug       	26	mug05       	264	not_alive	0	still	0	artefact	0	n	0	0        	 	0.0	0	79.8333948999643	79.9333678999683	0.0999730000039563
28904	100	1	stimuli/plant2/fern/plant_fern07.jpg             	1	1	1	plant_fern07.jpg     	plant2   	7	fern      	14	fern07      	146	alive    	1	still	0	natural 	1	n	0	0        	 	0.0	0	79.9833853000309	80.0833747999277	0.0999894998967648
29054	100	2	stimuli/animals2/pigeon/animal_pigeon06.jpg      	1	1	1	animal_pigeon06.jpg  	animals2 	1	pigeon    	28	pigeon06    	285	alive    	1	moves	1	natural 	1	n	0	0        	 	0.0	0	80.1333845999325	80.2333746999502	0.0999901000177488
29204	100	3	stimuli/animals2/bee/animal_bee03.jpg            	1	1	1	animal_bee03.jpg     	animals2 	1	bee       	0	bee03       	2	alive    	1	moves	1	natural 	1	n	0	0        	 	0.0	0	80.2833852999611	80.3834121000255	0.10002680006437
29354	100	4	stimuli/nonmovArt/mug/nma_mug03.jpg              	1	1	1	nma_mug03.jpg        	nonmovArt	4	mug       	26	mug03       	262	not_alive	0	still	0	artefact	0	n	0	0        	 	0.0	0	80.4334065000294	80.5334034999833	0.0999969999538735
29504	100	5	stimuli/animals/eagle/animal_eagle06.jpg         	1	1	1	animal_eagle06.jpg   	animals  	0	eagle     	13	eagle06     	135	alive    	1	moves	1	natural 	1	n	0	0        	 	0.0	0	80.5834029000252	80.683393000043	0.0999901000177488
29654	100	6	stimuli/plant/flower/plant_flower10.jpg          	1	1	1	plant_flower10.jpg   	plant    	6	flower    	16	flower10    	169	alive    	1	still	0	natural 	1	n	0	0        	 	0.0	0	80.7334036999382	80.8333966999781	0.0999930000398308
29804	100	7	stimuli/nonmovArt/bench/nma_bench03.jpg          	1	1	1	nma_bench03.jpg      	nonmovArt	4	bench     	1	bench03     	12	not_alive	0	still	0	artefact	0	n	0	0        	 	0.0	0	80.8836440999294	80.9834200999467	0.0997760000173002
29954	100	8	stimuli/plant2/lemontree/plant_lemontree09.jpg   	1	1	1	plant_lemontree09.jpg	plant2   	7	lemontree 	22	lemontree09 	228	alive    	1	still	0	natural 	1	n	0	0        	 	0.0	0	81.0334175999742	81.1334409000119	0.100023300037719
30104	100	9	stimuli/movNat/fire/mn_fire09.jpg                	1	1	1	mn_fire09.jpg        	movNat   	3	fire      	15	fire09      	158	not_alive	0	moves	1	natural 	1	n	0	0        	 	0.0	0	81.1834342000075	81.2834107000381	0.099976500030607
30254	100	10	stimuli/plant/tree/plant_tree03.jpg              	1	1	1	plant_tree03.jpg     	plant    	6	tree      	35	tree03      	352	alive    	1	still	0	natural 	1	n	0	0        	 	0.0	0	81.333439799957	81.433413599967	0.0999738000100478
30404	100	11	stimuli/animals2/bee/animal_bee01.jpg            	1	1	1	animal_bee01.jpg     	animals2 	1	bee       	0	bee01       	0	alive    	1	moves	1	natural 	1	n	0	0        	 	0.0	0	81.483422899968	81.5834173000185	0.0999944000504911
30554	100	12	stimuli/movNat/hotspring/mn_hotspring10.jpg      	1	1	1	mn_hotspring10.jpg   	movNat   	3	hotspring 	21	hotspring10 	219	not_alive	0	moves	1	natural 	1	n	0	0        	 	0.0	0	81.6334263000172	81.7334401999833	0.100013899966143
30704	100	13	stimuli/animals/horse/animal_horse01.jpg         	1	1	1	animal_horse01.jpg   	animals  	0	horse     	20	horse01     	200	alive    	1	moves	1	natural 	1	n	0	0        	 	0.0	0	81.7834310999606	81.8834411000134	0.100010000052862
30854	100	14	stimuli/plant/vine/plant_vine03.jpg              	1	1	1	plant_vine03.jpg     	plant    	6	vine      	36	vine03      	362	alive    	1	still	0	natural 	1	n	0	0        	 	0.0	0	81.9334362000227	82.0334360999987	0.0999998999759555
31004	100	15	stimuli/plant2/clover/plant_clover09.jpg         	1	1	1	plant_clover09.jpg   	plant2   	7	clover    	9	clover09    	98	alive    	1	still	0	natural 	1	n	0	0        	 	0.0	0	82.0834321000148	82.1834429999581	0.1000108999433
31154	100	16	stimuli/nonmovNat/shell/nmn_shell06.jpg          	1	1	1	nmn_shell06.jpg      	nonmovNat	5	shell     	32	shell06     	325	not_alive	0	still	0	natural 	1	n	0	0        	 	0.0	0	82.2334807999432	82.3334317000117	0.0999509000685066
31304	100	17	stimuli/nonmovNat/crystal/nmn_crystal10.jpg      	1	1	1	nmn_crystal10.jpg    	nonmovNat	5	crystal   	10	crystal10   	109	not_alive	0	still	0	natural 	1	n	0	0        	 	0.0	0	82.3834388999967	82.4834475000389	0.100008600042202
31454	100	18	stimuli/plant2/lemontree/plant_lemontree09.jpg   	1	1	1	plant_lemontree09.jpg	plant2   	7	lemontree 	22	lemontree09 	228	alive    	1	still	0	natural 	1	n	0	0        	 	0.0	0	82.5334452999523	82.6334388999967	0.0999936000443995
31604	100	19	stimuli/plant/grass/plant_grass01.jpg            	1	1	1	plant_grass01.jpg    	plant    	6	grass     	17	grass01     	170	alive    	1	still	0	natural 	1	n	0	0        	 	0.0	0	82.6834482999984	82.7834596999455	0.100011399947107
31754	100	20	stimuli/nonmovArt/headphones/nma_headphones02.jpg	1	1	1	nma_headphones02.jpg 	nonmovArt	4	headphones	18	headphones02	181	not_alive	0	still	0	artefact	0	n	0	0        	 	0.0	0	82.8334674999351	82.9334478999954	0.0999804000603035
31904	100	21	stimuli/movNat/waves/mn_waves07.jpg              	1	1	1	mn_waves07.jpg       	movNat   	3	waves     	38	waves07     	386	not_alive	0	moves	1	natural 	1	n	0	0        	 	0.0	0	82.9834836999653	83.0834483000217	0.0999646000564098
32054	100	22	stimuli/animals/eagle/animal_eagle03.jpg         	1	1	1	animal_eagle03.jpg   	animals  	0	eagle     	13	eagle03     	132	alive    	1	moves	1	natural 	1	n	0	0        	 	0.0	0	83.1334596000379	83.2334547999781	0.0999951999401674
32204	100	23	stimuli/animals2/pigeon/animal_pigeon01.jpg      	1	1	1	animal_pigeon01.jpg  	animals2 	1	pigeon    	28	pigeon01    	280	alive    	1	moves	1	natural 	1	n	0	0        	 	0.0	0	83.2834623999661	83.3834563000128	0.0999939000466838
32354	100	24	stimuli/plant/cactus/plant_cactus09.jpg          	1	1	1	plant_cactus09.jpg   	plant    	6	cactus    	4	cactus09    	48	alive    	1	still	0	natural 	1	n	0	0        	 	0.0	0	83.4334689000389	83.5334616999608	0.0999927999218926
32504	100	25	stimuli/animals2/lemur/animal_lemur05.jpg        	1	1	1	animal_lemur05.jpg   	animals2 	1	lemur     	23	lemur05     	234	alive    	1	moves	1	natural 	1	n	0	0        	 	0.0	0	83.5834952000296	83.6834650000092	0.0999697999795899
32654	100	26	stimuli/movArt/car/ma_car04.jpg                  	1	1	1	ma_car04.jpg         	movArt   	2	car       	5	car04       	53	not_alive	0	moves	1	artefact	0	n	0	0        	 	0.0	0	83.7335089000408	83.8334701999556	0.0999612999148667
32804	100	27	stimuli/animals2/tiger/animal_tiger08.jpg        	1	1	1	animal_tiger08.jpg   	animals2 	1	tiger     	33	tiger08     	337	alive    	1	moves	1	natural 	1	n	0	0        	 	0.0	0	83.8834822999779	83.98349220003	0.1000099000521
32954	100	28	stimuli/nonmovArt/clothespeg/nma_clothespeg09.jpg	1	1	1	nma_clothespeg09.jpg 	nonmovArt	4	clothespeg	8	clothespeg09	88	not_alive	0	still	0	artefact	0	n	0	0        	 	0.0	0	84.0334985000082	84.1334775999421	0.0999790999339894
33104	100	29	stimuli/plant2/clover/plant_clover05.jpg         	1	1	1	plant_clover05.jpg   	plant2   	7	clover    	9	clover05    	94	alive    	1	still	0	natural 	1	n	0	0        	 	0.0	0	84.1834879999515	84.2834818999982	0.0999939000466838
33254	100	30	stimuli/plant2/palmtree/plant_palmtree06.jpg     	1	1	1	plant_palmtree06.jpg 	plant2   	7	palmtree  	27	palmtree06  	275	alive    	1	still	0	natural 	1	n	0	0        	 	0.0	0	84.3335007999558	84.4334862999385	0.0999854999827221
33404	100	31	stimuli/plant2/moss/plant_moss10.jpg             	1	1	1	plant_moss10.jpg     	plant2   	7	moss      	25	moss10      	259	alive    	1	still	0	natural 	1	n	0	0        	 	0.0	0	84.4834963999456	84.5834914000006	0.0999950000550598
33554	100	32	stimuli/plant/flower/plant_flower01.jpg          	1	1	1	plant_flower01.jpg   	plant    	6	flower    	16	flower01    	160	alive    	1	still	0	natural 	1	n	0	0        	 	0.0	0	84.6335017000092	84.7335126999533	0.100010999944061
33704	100	33	stimuli/plant2/clover/plant_clover01.jpg         	1	1	1	plant_clover01.jpg   	plant2   	7	clover    	9	clover01    	90	alive    	1	still	0	natural 	1	n	0	0        	 	0.0	0	84.7835031000431	84.8834964999696	0.0999933999264613
33854	100	34	stimuli/animals2/tiger/animal_tiger09.jpg        	1	1	1	animal_tiger09.jpg   	animals2 	1	tiger     	33	tiger09     	338	alive    	1	moves	1	natural 	1	n	0	0        	 	0.0	0	84.9335225999821	85.033516400028	0.0999938000459224
34004	100	35	stimuli/movArt/train/ma_train04.jpg              	1	1	1	ma_train04.jpg       	movArt   	2	train     	34	train04     	343	not_alive	0	moves	1	artefact	0	n	0	0        	 	0.0	0	85.0835149999475	85.1835412000073	0.100026200059801
34154	100	36	stimuli/plant/grass/plant_grass05.jpg            	1	1	1	plant_grass05.jpg    	plant    	6	grass     	17	grass05     	174	alive    	1	still	0	natural 	1	n	0	0        	 	0.0	0	85.233516999986	85.3335101000266	0.0999931000405922
34304	100	37	stimuli/nonmovArt/clothespeg/nma_clothespeg10.jpg	1	1	1	nma_clothespeg10.jpg 	nonmovArt	4	clothespeg	8	clothespeg10	89	not_alive	0	still	0	artefact	0	n	0	0        	 	0.0	0	85.3835175000131	85.4835140999639	0.0999965999508277
34454	100	38	stimuli/movArt/car/ma_car08.jpg                  	1	1	1	ma_car08.jpg         	movArt   	2	car       	5	car08       	57	not_alive	0	moves	1	artefact	0	n	0	0        	 	0.0	0	85.5335239999695	85.6335170000093	0.0999930000398308
34604	100	39	stimuli/nonmovArt/clothespeg/nma_clothespeg05.jpg	1	1	1	nma_clothespeg05.jpg 	nonmovArt	4	clothespeg	8	clothespeg05	84	not_alive	0	still	0	artefact	0	n	0	0        	 	0.0	0	85.6835448000347	85.7835213999497	0.0999765999149531
34754	100	40	stimuli/animals/dog/animal_dog02.jpg             	1	1	1	animal_dog02.jpg     	animals  	0	dog       	11	dog02       	111	alive    	1	moves	1	natural 	1	n	1	0        	 	0.0	0	85.8335405000253	85.9335636999458	0.100023199920543
34904	100	41	stimuli/nonmovArt/headphones/nma_headphones05.jpg	1	1	1	nma_headphones05.jpg 	nonmovArt	4	headphones	18	headphones05	184	not_alive	0	still	0	artefact	0	n	0	0        	 	0.0	0	85.9835422999459	86.0835294999415	0.0999871999956667
35054	100	42	stimuli/animals2/tiger/animal_tiger02.jpg        	1	1	1	animal_tiger02.jpg   	animals2 	1	tiger     	33	tiger02     	331	alive    	1	moves	1	natural 	1	n	0	0        	 	0.0	0	86.1335402999539	86.2335320999846	0.0999918000306934
35204	100	43	stimuli/animals/cat/animal_cat08.jpg             	1	1	1	animal_cat08.jpg     	animals  	0	cat       	6	cat08       	67	alive    	1	moves	1	natural 	1	n	1	1        	f	0.0919986999360844	1	86.2835434000008	86.3835346000269	0.0999912000261247
35354	100	44	stimuli/animals/horse/animal_horse03.jpg         	1	1	1	animal_horse03.jpg   	animals  	0	horse     	20	horse03     	202	alive    	1	moves	1	natural 	1	n	0	0        	 	0.0	0	86.4335478999419	86.5335430999985	0.0999952000565827
35504	100	45	stimuli/movArt/boat/ma_boat01.jpg                	1	1	1	ma_boat01.jpg        	movArt   	2	boat      	2	boat01      	20	not_alive	0	moves	1	artefact	0	n	0	0        	 	0.0	0	86.5835527000018	86.6835743000265	0.100021600024775
35654	100	46	stimuli/animals2/whale/animal_whale01.jpg        	1	1	1	animal_whale01.jpg   	animals2 	1	whale     	39	whale01     	390	alive    	1	moves	1	natural 	1	n	0	0        	 	0.0	0	86.7335557999322	86.8335486999713	0.0999929000390694
35804	100	47	stimuli/movNat/waves/mn_waves01.jpg              	1	1	1	mn_waves01.jpg       	movNat   	3	waves     	38	waves01     	380	not_alive	0	moves	1	natural 	1	n	0	0        	 	0.0	0	86.8835588999791	86.9835539000342	0.0999950000550598
35954	100	48	stimuli/movArt/bus/ma_bus01.jpg                  	1	1	1	ma_bus01.jpg         	movArt   	2	bus       	3	bus01       	30	not_alive	0	moves	1	artefact	0	n	0	0        	 	0.0	0	87.0335756000131	87.1335568999639	0.0999812999507412
36104	100	49	stimuli/movNat/river/mn_river02.jpg              	1	1	1	mn_river02.jpg       	movNat   	3	river     	29	river02     	291	not_alive	0	moves	1	natural 	1	n	0	0        	 	0.0	0	87.1835683999816	87.2835764000192	0.100008000037633
36254	100	50	stimuli/movNat/river/mn_river09.jpg              	1	1	1	mn_river09.jpg       	movNat   	3	river     	29	river09     	298	not_alive	0	moves	1	natural 	1	n	0	0        	 	0.0	0	87.333569200011	87.4335814999649	0.10001229995396
36404	100	51	stimuli/animals/cat/animal_cat03.jpg             	1	1	1	animal_cat03.jpg     	animals  	0	cat       	6	cat03       	62	alive    	1	moves	1	natural 	1	n	0	0        	 	0.0	0	87.4835777999833	87.5835695000133	0.099991700029932
36554	100	52	stimuli/nonmovNat/rock/nmn_rock07.jpg            	1	1	1	nmn_rock07.jpg       	nonmovNat	5	rock      	30	rock07      	306	not_alive	0	still	0	natural 	1	n	0	0        	 	0.0	0	87.6335795000196	87.733572899946	0.0999933999264613
36704	100	53	stimuli/animals/dolphin/animal_dolphin05.jpg     	1	1	1	animal_dolphin05.jpg 	animals  	0	dolphin   	12	dolphin05   	124	alive    	1	moves	1	natural 	1	n	0	0        	 	0.0	0	87.7835951999295	87.8835792000173	0.0999840000877157
36854	100	54	stimuli/movNat/waterfall/mn_waterfall10.jpg      	1	1	1	mn_waterfall10.jpg   	movNat   	3	waterfall 	37	waterfall10 	379	not_alive	0	moves	1	natural 	1	n	0	0        	 	0.0	0	87.9336081999354	88.0335946000414	0.0999864001059905
37004	100	55	stimuli/movNat/fire/mn_fire01.jpg                	1	1	1	mn_fire01.jpg        	movNat   	3	fire      	15	fire01      	150	not_alive	0	moves	1	natural 	1	n	0	0        	 	0.0	0	88.0835904999403	88.1835910000373	0.10000050009694
37154	100	56	stimuli/plant/cactus/plant_cactus04.jpg          	1	1	1	plant_cactus04.jpg   	plant    	6	cactus    	4	cactus04    	43	alive    	1	still	0	natural 	1	n	0	0        	 	0.0	0	88.2336143000284	88.3335891999304	0.0999748999020085
37304	100	57	stimuli/nonmovArt/mug/nma_mug04.jpg              	1	1	1	nma_mug04.jpg        	nonmovArt	4	mug       	26	mug04       	263	not_alive	0	still	0	artefact	0	n	0	0        	 	0.0	0	88.3835982999299	88.4835932999849	0.0999950000550598
37454	100	58	stimuli/plant/vine/plant_vine01.jpg              	1	1	1	plant_vine01.jpg     	plant    	6	vine      	36	vine01      	360	alive    	1	still	0	natural 	1	n	0	0        	 	0.0	0	88.5336084000301	88.6336138999322	0.100005499902181
37604	100	59	stimuli/animals2/whale/animal_whale09.jpg        	1	1	1	animal_whale09.jpg   	animals2 	1	whale     	39	whale09     	398	alive    	1	moves	1	natural 	1	n	0	0        	 	0.0	0	88.6836073999293	88.7836018999806	0.0999945000512525
37754	100	60	stimuli/nonmovArt/bench/nma_bench05.jpg          	1	1	1	nma_bench05.jpg      	nonmovArt	4	bench     	1	bench05     	14	not_alive	0	still	0	artefact	0	n	0	0        	 	0.0	0	88.8336125999922	88.9336050000274	0.0999924000352621
37904	100	61	stimuli/nonmovArt/lock/nma_lock05.jpg            	1	1	1	nma_lock05.jpg       	nonmovArt	4	lock      	24	lock05      	244	not_alive	0	still	0	artefact	0	n	1	0        	 	0.0	0	88.9836147000315	89.0836237999611	0.100009099929594
38054	100	62	stimuli/nonmovNat/cliff/nmn_cliff10.jpg          	1	1	1	nmn_cliff10.jpg      	nonmovNat	5	cliff     	7	cliff10     	79	not_alive	0	still	0	natural 	1	n	0	0        	 	0.0	0	89.1336352999788	89.233611100004	0.0999758000252768
38204	100	63	stimuli/movArt/helicopter/ma_helicopter04.jpg    	1	1	1	ma_helicopter04.jpg  	movArt   	2	helicopter	19	helicopter04	193	not_alive	0	moves	1	artefact	0	n	0	0        	 	0.0	0	89.2836508000037	89.3836153999437	0.0999645999399945
38354	100	64	stimuli/nonmovNat/sand/nmn_sand10.jpg            	1	1	1	nmn_sand10.jpg       	nonmovNat	5	sand      	31	sand10      	319	not_alive	0	still	0	natural 	1	n	0	1        	f	0.442132500000298	1	89.4336263999576	89.5336192999966	0.0999929000390694
38504	100	65	stimuli/animals2/pigeon/animal_pigeon06.jpg      	1	1	1	animal_pigeon06.jpg  	animals2 	1	pigeon    	28	pigeon06    	285	alive    	1	moves	1	natural 	1	n	0	0        	 	0.0	0	89.583621299942	89.6836520000361	0.100030700094067
38654	100	66	stimuli/plant/vine/plant_vine06.jpg              	1	1	1	plant_vine06.jpg     	plant    	6	vine      	36	vine06      	365	alive    	1	still	0	natural 	1	n	0	0        	 	0.0	0	89.7336638999404	89.8336573999841	0.099993500043638
38804	100	67	stimuli/plant2/lemontree/plant_lemontree09.jpg   	1	1	1	plant_lemontree09.jpg	plant2   	7	lemontree 	22	lemontree09 	228	alive    	1	still	0	natural 	1	n	0	0        	 	0.0	0	89.8836561000207	89.9836534999777	0.0999973999569192
38954	100	68	stimuli/plant2/fern/plant_fern04.jpg             	1	1	1	plant_fern04.jpg     	plant2   	7	fern      	14	fern04      	143	alive    	1	still	0	natural 	1	n	0	0        	 	0.0	0	90.0336672000121	90.1336518999888	0.0999846999766305
39104	100	69	stimuli/plant2/palmtree/plant_palmtree04.jpg     	1	1	1	plant_palmtree04.jpg 	plant2   	7	palmtree  	27	palmtree04  	273	alive    	1	still	0	natural 	1	n	0	0        	 	0.0	0	90.1836629000027	90.2836683000205	0.100005400017835
39254	100	70	stimuli/movArt/helicopter/ma_helicopter09.jpg    	1	1	1	ma_helicopter09.jpg  	movArt   	2	helicopter	19	helicopter09	198	not_alive	0	moves	1	artefact	0	n	0	0        	 	0.0	0	90.3336796000367	90.4336725999601	0.0999929999234155
39404	100	71	stimuli/nonmovNat/cliff/nmn_cliff03.jpg          	1	1	1	nmn_cliff03.jpg      	nonmovNat	5	cliff     	7	cliff03     	72	not_alive	0	still	0	natural 	1	n	0	0        	 	0.0	0	90.4836667999625	90.5836786000291	0.100011800066568
39554	100	72	stimuli/nonmovArt/lock/nma_lock04.jpg            	1	1	1	nma_lock04.jpg       	nonmovArt	4	lock      	24	lock04      	243	not_alive	0	still	0	artefact	0	n	0	0        	 	0.0	0	90.6336707000155	90.7336924000411	0.100021700025536
39704	100	73	stimuli/animals2/bee/animal_bee06.jpg            	1	1	1	animal_bee06.jpg     	animals2 	1	bee       	0	bee06       	5	alive    	1	moves	1	natural 	1	n	0	0        	 	0.0	0	90.7836916999659	90.883668800001	0.0999771000351757
39854	100	74	stimuli/animals/eagle/animal_eagle10.jpg         	1	1	1	animal_eagle10.jpg   	animals  	0	eagle     	13	eagle10     	139	alive    	1	moves	1	natural 	1	n	0	0        	 	0.0	0	90.9336798000149	91.0336636999855	0.0999838999705389
40004	100	75	stimuli/nonmovNat/rock/nmn_rock09.jpg            	1	1	1	nmn_rock09.jpg       	nonmovNat	5	rock      	30	rock09      	308	not_alive	0	still	0	natural 	1	n	0	0        	 	0.0	0	91.0836869999766	91.1836898999754	0.100002899998799
40154	100	76	stimuli/plant2/moss/plant_moss10.jpg             	1	1	1	plant_moss10.jpg     	plant2   	7	moss      	25	moss10      	259	alive    	1	still	0	natural 	1	n	0	0        	 	0.0	0	91.2337031000061	91.3336967999348	0.0999936999287456
40304	100	77	stimuli/movNat/waves/mn_waves07.jpg              	1	1	1	mn_waves07.jpg       	movNat   	3	waves     	38	waves07     	386	not_alive	0	moves	1	natural 	1	n	0	0        	 	0.0	0	91.3836902999319	91.483680699952	0.0999904000200331
40454	100	78	stimuli/plant/grass/plant_grass08.jpg            	1	1	1	plant_grass08.jpg    	plant    	6	grass     	17	grass08     	177	alive    	1	still	0	natural 	1	n	0	0        	 	0.0	0	91.5337093999842	91.6336887000362	0.0999793000519276
40604	100	79	stimuli/movNat/hotspring/mn_hotspring10.jpg      	1	1	1	mn_hotspring10.jpg   	movNat   	3	hotspring 	21	hotspring10 	219	not_alive	0	moves	1	natural 	1	n	0	0        	 	0.0	0	91.6837143999292	91.7836915999651	0.0999772000359371
43804	100	80	stimuli/nonmovNat/crystal/nmn_crystal06.jpg      	1	2	1	nmn_crystal06.jpg    	nonmovNat	5	crystal   	10	crystal06   	105	not_alive	0	still	0	natural 	1	n	0	0        	 	0.0	0	94.883793200017	94.9837717999471	0.0999785999301821
43954	100	81	stimuli/animals/dolphin/animal_dolphin07.jpg     	1	2	1	animal_dolphin07.jpg 	animals  	0	dolphin   	12	dolphin07   	126	alive    	1	moves	1	natural 	1	n	0	0        	 	0.0	0	95.0337800999405	95.1337740999879	0.0999940000474453
44104	100	82	stimuli/animals2/lemur/animal_lemur01.jpg        	1	2	1	animal_lemur01.jpg   	animals2 	1	lemur     	23	lemur01     	230	alive    	1	moves	1	natural 	1	n	0	0        	 	0.0	0	95.1837843999965	95.2837804999435	0.0999960999470204
44254	100	83	stimuli/plant2/fern/plant_fern06.jpg             	1	2	1	plant_fern06.jpg     	plant2   	7	fern      	14	fern06      	145	alive    	1	still	0	natural 	1	n	0	0        	 	0.0	0	95.3337876999285	95.4337814999744	0.0999938000459224
44404	100	84	stimuli/movArt/bus/ma_bus07.jpg                  	1	2	1	ma_bus07.jpg         	movArt   	2	bus       	3	bus07       	36	not_alive	0	moves	1	artefact	0	n	0	0        	 	0.0	0	95.4837927999906	95.5837866000366	0.0999938000459224
44554	100	85	stimuli/plant2/palmtree/plant_palmtree08.jpg     	1	2	1	plant_palmtree08.jpg 	plant2   	7	palmtree  	27	palmtree08  	277	alive    	1	still	0	natural 	1	n	0	0        	 	0.0	0	95.6337970999302	95.7337911999784	0.0999941000482068
44704	100	86	stimuli/plant/tree/plant_tree01.jpg              	1	2	1	plant_tree01.jpg     	plant    	6	tree      	35	tree01      	350	alive    	1	still	0	natural 	1	n	0	0        	 	0.0	0	95.7838003999786	95.8837943000253	0.0999939000466838
44854	100	87	stimuli/nonmovArt/headphones/nma_headphones08.jpg	1	2	1	nma_headphones08.jpg 	nonmovArt	4	headphones	18	headphones08	187	not_alive	0	still	0	artefact	0	n	0	0        	 	0.0	0	95.9338027000194	96.0337982999626	0.0999955999432132
45004	100	88	stimuli/movNat/hotspring/mn_hotspring01.jpg      	1	2	1	mn_hotspring01.jpg   	movNat   	3	hotspring 	21	hotspring01 	210	not_alive	0	moves	1	natural 	1	n	0	0        	 	0.0	0	96.0838083999697	96.1838016000111	0.0999932000413537
45154	100	89	stimuli/movArt/car/ma_car10.jpg                  	1	2	1	ma_car10.jpg         	movArt   	2	car       	5	car10       	59	not_alive	0	moves	1	artefact	0	n	0	0        	 	0.0	0	96.233812600025	96.3338075999636	0.0999949999386445
45304	100	90	stimuli/nonmovNat/sand/nmn_sand01.jpg            	1	2	1	nmn_sand01.jpg       	nonmovNat	5	sand      	31	sand01      	310	not_alive	0	still	0	natural 	1	n	0	0        	 	0.0	0	96.3838151999517	96.4838099000044	0.0999947000527754
45454	100	91	stimuli/animals/dog/animal_dog07.jpg             	1	2	1	animal_dog07.jpg     	animals  	0	dog       	11	dog07       	116	alive    	1	moves	1	natural 	1	n	0	0        	 	0.0	0	96.5338194000069	96.6338225000072	0.100003100000322
45604	100	92	stimuli/animals/dolphin/animal_dolphin03.jpg     	1	2	1	animal_dolphin03.jpg 	animals  	0	dolphin   	12	dolphin03   	122	alive    	1	moves	1	natural 	1	n	0	0        	 	0.0	0	96.6838348000311	96.78381980001	0.0999849999789149
45754	100	93	stimuli/plant/tree/plant_tree02.jpg              	1	2	1	plant_tree02.jpg     	plant    	6	tree      	35	tree02      	351	alive    	1	still	0	natural 	1	n	0	0        	 	0.0	0	96.8338326000376	96.9338202000363	0.0999875999987125
45905	100	94	stimuli/nonmovArt/bench/nma_bench09.jpg          	1	2	1	nma_bench09.jpg      	nonmovArt	4	bench     	1	bench09     	18	not_alive	0	still	0	artefact	0	n	0	0        	 	0.0	0	96.9838319999399	97.083825699985	0.099993700045161
46054	100	95	stimuli/animals/dog/animal_dog05.jpg             	1	2	1	animal_dog05.jpg     	animals  	0	dog       	11	dog05       	114	alive    	1	moves	1	natural 	1	n	0	0        	 	0.0	0	97.1338362999959	97.2338303999277	0.0999940999317914
46204	100	96	stimuli/movNat/river/mn_river06.jpg              	1	2	1	mn_river06.jpg       	movNat   	3	river     	29	river06     	295	not_alive	0	moves	1	natural 	1	n	0	0        	 	0.0	0	97.2838391000405	97.3838299999479	0.099990899907425
46355	100	97	stimuli/movNat/fire/mn_fire08.jpg                	1	2	1	mn_fire08.jpg        	movNat   	3	fire      	15	fire08      	157	not_alive	0	moves	1	natural 	1	n	0	0        	 	0.0	0	97.4338432999793	97.5338371000253	0.0999938000459224
46505	100	98	stimuli/animals2/lemur/animal_lemur05.jpg        	1	2	1	animal_lemur05.jpg   	animals2 	1	lemur     	23	lemur05     	234	alive    	1	moves	1	natural 	1	n	0	0        	 	0.0	0	97.5838505999418	97.6838434999809	0.0999929000390694
46655	100	99	stimuli/animals/cat/animal_cat10.jpg             	1	2	1	animal_cat10.jpg     	animals  	0	cat       	6	cat10       	69	alive    	1	moves	1	natural 	1	n	0	0        	 	0.0	0	97.7338503999636	97.833846100024	0.0999957000603899
46805	100	100	stimuli/plant/flower/plant_flower09.jpg          	1	2	1	plant_flower09.jpg   	plant    	6	flower    	16	flower09    	168	alive    	1	still	0	natural 	1	n	0	0        	 	0.0	0	97.8838565000333	97.9838505999651	0.0999940999317914
46955	100	101	stimuli/nonmovNat/crystal/nmn_crystal05.jpg      	1	2	1	nmn_crystal05.jpg    	nonmovNat	5	crystal   	10	crystal05   	104	not_alive	0	still	0	natural 	1	n	0	0        	 	0.0	0	98.033861599979	98.1338649999816	0.100003400002606
47105	100	102	stimuli/movArt/boat/ma_boat08.jpg                	1	2	1	ma_boat08.jpg        	movArt   	2	boat      	2	boat08      	27	not_alive	0	moves	1	artefact	0	n	0	0        	 	0.0	0	98.1838649000274	98.283856999944	0.0999920999165624
47255	100	103	stimuli/movArt/train/ma_train08.jpg              	1	2	1	ma_train08.jpg       	movArt   	2	train     	34	train08     	347	not_alive	0	moves	1	artefact	0	n	0	0        	 	0.0	0	98.3338719999883	98.4338604999939	0.0999885000055656
47405	100	104	stimuli/nonmovNat/shell/nmn_shell07.jpg          	1	2	1	nmn_shell07.jpg      	nonmovNat	5	shell     	32	shell07     	326	not_alive	0	still	0	natural 	1	n	0	0        	 	0.0	0	98.483883399982	98.5838661999442	0.099982799962163
47555	100	105	stimuli/movNat/waterfall/mn_waterfall05.jpg      	1	2	1	mn_waterfall05.jpg   	movNat   	3	waterfall 	37	waterfall05 	374	not_alive	0	moves	1	natural 	1	n	1	0        	 	0.0	0	98.6338768999558	98.7338802999584	0.100003400002606
47705	100	106	stimuli/animals2/whale/animal_whale08.jpg        	1	2	1	animal_whale08.jpg   	animals2 	1	whale     	39	whale08     	397	alive    	1	moves	1	natural 	1	n	0	1        	f	0.253300499985926	1	98.7838877999457	98.8838772999588	0.0999895000131801
47855	100	107	stimuli/movArt/boat/ma_boat05.jpg                	1	2	1	ma_boat05.jpg        	movArt   	2	boat      	2	boat05      	24	not_alive	0	moves	1	artefact	0	n	0	0        	 	0.0	0	98.9338855999522	99.0338768999791	0.0999913000268862
48005	100	108	stimuli/plant/cactus/plant_cactus08.jpg          	1	2	1	plant_cactus08.jpg   	plant    	6	cactus    	4	cactus08    	47	alive    	1	still	0	natural 	1	n	0	0        	 	0.0	0	99.0838879999938	99.1838940000162	0.100006000022404
48155	100	109	stimuli/nonmovNat/cliff/nmn_cliff09.jpg          	1	2	1	nmn_cliff09.jpg      	nonmovNat	5	cliff     	7	cliff09     	78	not_alive	0	still	0	natural 	1	n	0	0        	 	0.0	0	99.2338913000421	99.3338848999701	0.0999935999279842
48305	100	110	stimuli/nonmovNat/shell/nmn_shell05.jpg          	1	2	1	nmn_shell05.jpg      	nonmovNat	5	shell     	32	shell05     	324	not_alive	0	still	0	natural 	1	n	0	0        	 	0.0	0	99.3838945999742	99.4838889000239	0.0999943000497296
48455	100	111	stimuli/movNat/waterfall/mn_waterfall01.jpg      	1	2	1	mn_waterfall01.jpg   	movNat   	3	waterfall 	37	waterfall01 	370	not_alive	0	moves	1	natural 	1	n	0	0        	 	0.0	0	99.5338985000271	99.6338931999635	0.0999946999363601
48605	100	112	stimuli/nonmovArt/lock/nma_lock06.jpg            	1	2	1	nma_lock06.jpg       	nonmovArt	4	lock      	24	lock06      	245	not_alive	0	still	0	artefact	0	n	0	0        	 	0.0	0	99.6839045999804	99.7838968000142	0.0999922000337392
48755	100	113	stimuli/nonmovNat/rock/nmn_rock01.jpg            	1	2	1	nmn_rock01.jpg       	nonmovNat	5	rock      	30	rock01      	300	not_alive	0	still	0	natural 	1	n	0	0        	 	0.0	0	99.8339063000167	99.9339002999477	0.09999399993103
48905	100	114	stimuli/nonmovNat/sand/nmn_sand08.jpg            	1	2	1	nmn_sand08.jpg       	nonmovNat	5	sand      	31	sand08      	317	not_alive	0	still	0	natural 	1	n	0	0        	 	0.0	0	99.9839103999548	100.083904600004	0.0999942000489682
49055	100	115	stimuli/animals/horse/animal_horse09.jpg         	1	2	1	animal_horse09.jpg   	animals  	0	horse     	20	horse09     	208	alive    	1	moves	1	natural 	1	n	0	0        	 	0.0	0	100.133918000036	100.23392239993	0.100004399893805
49205	100	116	stimuli/movArt/helicopter/ma_helicopter04.jpg    	1	2	1	ma_helicopter04.jpg  	movArt   	2	helicopter	19	helicopter04	193	not_alive	0	moves	1	artefact	0	n	0	0        	 	0.0	0	100.28392029996	100.383910199977	0.0999899000162259
49355	100	117	stimuli/movArt/train/ma_train02.jpg              	1	2	1	ma_train02.jpg       	movArt   	2	train     	34	train02     	341	not_alive	0	moves	1	artefact	0	n	0	0        	 	0.0	0	100.433922900003	100.533920599963	0.0999976999592036
49505	100	118	stimuli/movArt/bus/ma_bus01.jpg                  	1	2	1	ma_bus01.jpg         	movArt   	2	bus       	3	bus01       	30	not_alive	0	moves	1	artefact	0	n	0	0        	 	0.0	0	100.583926199935	100.68392119999	0.0999950000550598
49655	100	119	stimuli/plant2/moss/plant_moss02.jpg             	1	2	1	plant_moss02.jpg     	plant2   	7	moss      	25	moss02      	251	alive    	1	still	0	natural 	1	n	0	0        	 	0.0	0	100.733930699993	100.833982100012	0.100051400018856
49805	100	120	stimuli/animals/eagle/animal_eagle03.jpg         	1	2	1	animal_eagle03.jpg   	animals  	0	eagle     	13	eagle03     	132	alive    	1	moves	1	natural 	1	n	0	0        	 	0.0	0	100.883939499967	100.983930599992	0.0999911000253633
49955	100	121	stimuli/plant/tree/plant_tree07.jpg              	1	2	1	plant_tree07.jpg     	plant    	6	tree      	35	tree07      	356	alive    	1	still	0	natural 	1	n	0	0        	 	0.0	0	101.033940199995	101.133934499929	0.0999942999333143
50105	100	122	stimuli/animals/cat/animal_cat07.jpg             	1	2	1	animal_cat07.jpg     	animals  	0	cat       	6	cat07       	66	alive    	1	moves	1	natural 	1	n	0	0        	 	0.0	0	101.183943699929	101.283936199965	0.0999925000360236
50255	100	123	stimuli/animals/dolphin/animal_dolphin01.jpg     	1	2	1	animal_dolphin01.jpg 	animals  	0	dolphin   	12	dolphin01   	120	alive    	1	moves	1	natural 	1	n	0	0        	 	0.0	0	101.333947799983	101.433942100033	0.0999943000497296
50405	100	124	stimuli/animals2/bee/animal_bee05.jpg            	1	2	1	animal_bee05.jpg     	animals2 	1	bee       	0	bee05       	4	alive    	1	moves	1	natural 	1	n	0	0        	 	0.0	0	101.483949700021	101.583945599967	0.0999958999454975
50555	100	125	stimuli/movArt/boat/ma_boat10.jpg                	1	2	1	ma_boat10.jpg        	movArt   	2	boat      	2	boat10      	29	not_alive	0	moves	1	artefact	0	n	0	0        	 	0.0	0	101.633956299978	101.733951500035	0.0999952000565827
50705	100	126	stimuli/movNat/waves/mn_waves02.jpg              	1	2	1	mn_waves02.jpg       	movNat   	3	waves     	38	waves02     	381	not_alive	0	moves	1	natural 	1	n	0	0        	 	0.0	0	101.783959700027	101.883954799967	0.0999950999394059
50855	100	127	stimuli/plant2/moss/plant_moss04.jpg             	1	2	1	plant_moss04.jpg     	plant2   	7	moss      	25	moss04      	253	alive    	1	still	0	natural 	1	n	0	0        	 	0.0	0	101.933962899959	102.033957300009	0.0999944000504911
51005	100	128	stimuli/nonmovArt/headphones/nma_headphones10.jpg	1	2	1	nma_headphones10.jpg 	nonmovArt	4	headphones	18	headphones10	189	not_alive	0	still	0	artefact	0	n	0	0        	 	0.0	0	102.083970000036	102.183963799966	0.0999937999295071
51155	100	129	stimuli/movArt/car/ma_car09.jpg                  	1	2	1	ma_car09.jpg         	movArt   	2	car       	5	car09       	58	not_alive	0	moves	1	artefact	0	n	0	0        	 	0.0	0	102.233971599955	102.333964499994	0.0999929000390694
51305	100	130	stimuli/animals2/tiger/animal_tiger06.jpg        	1	2	1	animal_tiger06.jpg   	animals2 	1	tiger     	33	tiger06     	335	alive    	1	moves	1	natural 	1	n	0	0        	 	0.0	0	102.383971399977	102.483969999943	0.0999985999660566
51455	100	131	stimuli/plant/cactus/plant_cactus01.jpg          	1	2	1	plant_cactus01.jpg   	plant    	6	cactus    	4	cactus01    	40	alive    	1	still	0	natural 	1	n	0	0        	 	0.0	0	102.533979599946	102.633976100013	0.0999965000664815
51605	100	132	stimuli/animals2/bee/animal_bee08.jpg            	1	2	1	animal_bee08.jpg     	animals2 	1	bee       	0	bee08       	7	alive    	1	moves	1	natural 	1	n	0	0        	 	0.0	0	102.68398620002	102.783977299929	0.0999910999089479
51755	100	133	stimuli/animals/cat/animal_cat04.jpg             	1	2	1	animal_cat04.jpg     	animals  	0	cat       	6	cat04       	63	alive    	1	moves	1	natural 	1	n	0	0        	 	0.0	0	102.833985600038	102.933978999965	0.0999933999264613
51905	100	134	stimuli/plant/flower/plant_flower08.jpg          	1	2	1	plant_flower08.jpg   	plant    	6	flower    	16	flower08    	167	alive    	1	still	0	natural 	1	n	0	0        	 	0.0	0	102.983992199996	103.083985900041	0.099993700045161
52055	100	135	stimuli/nonmovNat/crystal/nmn_crystal05.jpg      	1	2	1	nmn_crystal05.jpg    	nonmovNat	5	crystal   	10	crystal05   	104	not_alive	0	still	0	natural 	1	n	0	0        	 	0.0	0	103.133998799953	103.233990699984	0.0999919000314549
52205	100	136	stimuli/movNat/fire/mn_fire04.jpg                	1	2	1	mn_fire04.jpg        	movNat   	3	fire      	15	fire04      	153	not_alive	0	moves	1	natural 	1	n	1	0        	 	0.0	0	103.283999199979	103.38400369999	0.100004500010982
52355	100	137	stimuli/movArt/bus/ma_bus06.jpg                  	1	2	1	ma_bus06.jpg         	movArt   	2	bus       	3	bus06       	35	not_alive	0	moves	1	artefact	0	n	0	1        	f	0.241999199963175	1	103.433996599982	103.534022800042	0.100026200059801
52505	100	138	stimuli/plant/cactus/plant_cactus10.jpg          	1	2	1	plant_cactus10.jpg   	plant    	6	cactus    	4	cactus10    	49	alive    	1	still	0	natural 	1	n	0	0        	 	0.0	0	103.584002399934	103.683996799984	0.0999944000504911
52655	100	139	stimuli/plant2/moss/plant_moss03.jpg             	1	2	1	plant_moss03.jpg     	plant2   	7	moss      	25	moss03      	252	alive    	1	still	0	natural 	1	n	0	0        	 	0.0	0	103.734005099977	103.833999200026	0.0999941000482068
52805	100	140	stimuli/plant/vine/plant_vine09.jpg              	1	2	1	plant_vine09.jpg     	plant    	6	vine      	36	vine09      	368	alive    	1	still	0	natural 	1	n	0	0        	 	0.0	0	103.884009200032	103.984017799958	0.100008599925786
52955	100	141	stimuli/plant/tree/plant_tree02.jpg              	1	2	1	plant_tree02.jpg     	plant    	6	tree      	35	tree02      	351	alive    	1	still	0	natural 	1	n	0	0        	 	0.0	0	104.034010799951	104.134020400001	0.100009600049816
53105	100	142	stimuli/movNat/waves/mn_waves10.jpg              	1	2	1	mn_waves10.jpg       	movNat   	3	waves     	38	waves10     	389	not_alive	0	moves	1	natural 	1	n	0	0        	 	0.0	0	104.184016600018	104.284011699958	0.0999950999394059
53255	100	143	stimuli/animals2/tiger/animal_tiger03.jpg        	1	2	1	animal_tiger03.jpg   	animals2 	1	tiger     	33	tiger03     	332	alive    	1	moves	1	natural 	1	n	0	0        	 	0.0	0	104.334018699941	104.434012299986	0.0999936000443995
53405	100	144	stimuli/plant/flower/plant_flower07.jpg          	1	2	1	plant_flower07.jpg   	plant    	6	flower    	16	flower07    	166	alive    	1	still	0	natural 	1	n	0	0        	 	0.0	0	104.484025900019	104.584019199945	0.0999932999256998
53555	100	145	stimuli/movArt/helicopter/ma_helicopter05.jpg    	1	2	1	ma_helicopter05.jpg  	movArt   	2	helicopter	19	helicopter05	194	not_alive	0	moves	1	artefact	0	n	0	0        	 	0.0	0	104.634029399953	104.734035099973	0.10000570002012
53705	100	146	stimuli/nonmovArt/clothespeg/nma_clothespeg06.jpg	1	2	1	nma_clothespeg06.jpg 	nonmovArt	4	clothespeg	8	clothespeg06	85	not_alive	0	still	0	artefact	0	n	0	0        	 	0.0	0	104.784031299991	104.88402639993	0.0999950999394059
53855	100	147	stimuli/nonmovNat/rock/nmn_rock01.jpg            	1	2	1	nmn_rock01.jpg       	nonmovNat	5	rock      	30	rock01      	300	not_alive	0	still	0	natural 	1	n	0	0        	 	0.0	0	104.934035200044	105.034027999965	0.0999927999218926
54005	100	148	stimuli/animals2/pigeon/animal_pigeon05.jpg      	1	2	1	animal_pigeon05.jpg  	animals2 	1	pigeon    	28	pigeon05    	284	alive    	1	moves	1	natural 	1	n	0	0        	 	0.0	0	105.08404039999	105.184034600039	0.0999942000489682
54155	100	149	stimuli/plant2/fern/plant_fern07.jpg             	1	2	1	plant_fern07.jpg     	plant2   	7	fern      	14	fern07      	146	alive    	1	still	0	natural 	1	n	0	0        	 	0.0	0	105.234044100042	105.334037699969	0.0999935999279842
54305	100	150	stimuli/movArt/train/ma_train02.jpg              	1	2	1	ma_train02.jpg       	movArt   	2	train     	34	train02     	341	not_alive	0	moves	1	artefact	0	n	0	0        	 	0.0	0	105.384044799954	105.484041600022	0.0999968000687659
54455	100	151	stimuli/movNat/hotspring/mn_hotspring05.jpg      	1	2	1	mn_hotspring05.jpg   	movNat   	3	hotspring 	21	hotspring05 	214	not_alive	0	moves	1	natural 	1	n	0	0        	 	0.0	0	105.534052700037	105.634045899962	0.0999931999249384
54605	100	152	stimuli/movNat/river/mn_river06.jpg              	1	2	1	mn_river06.jpg       	movNat   	3	river     	29	river06     	295	not_alive	0	moves	1	natural 	1	n	0	0        	 	0.0	0	105.684055099962	105.784050800023	0.0999957000603899
54755	100	153	stimuli/animals2/pigeon/animal_pigeon07.jpg      	1	2	1	animal_pigeon07.jpg  	animals2 	1	pigeon    	28	pigeon07    	286	alive    	1	moves	1	natural 	1	n	0	0        	 	0.0	0	105.83406100003	105.934051199933	0.0999901999020949
54905	100	154	stimuli/animals2/tiger/animal_tiger06.jpg        	1	2	1	animal_tiger06.jpg   	animals2 	1	tiger     	33	tiger06     	335	alive    	1	moves	1	natural 	1	n	0	0        	 	0.0	0	105.984062999953	106.084077800042	0.100014800089411
55055	100	155	stimuli/plant2/palmtree/plant_palmtree09.jpg     	1	2	1	plant_palmtree09.jpg 	plant2   	7	palmtree  	27	palmtree09  	278	alive    	1	still	0	natural 	1	n	0	0        	 	0.0	0	106.134068600019	106.234060999937	0.0999923999188468
55205	100	156	stimuli/nonmovArt/lock/nma_lock01.jpg            	1	2	1	nma_lock01.jpg       	nonmovArt	4	lock      	24	lock01      	240	not_alive	0	still	0	artefact	0	n	0	0        	 	0.0	0	106.284070299938	106.384062599973	0.0999923000345007
55355	100	157	stimuli/plant2/lemontree/plant_lemontree04.jpg   	1	2	1	plant_lemontree04.jpg	plant2   	7	lemontree 	22	lemontree04 	223	alive    	1	still	0	natural 	1	n	0	0        	 	0.0	0	106.434073899989	106.534069399931	0.0999954999424517
55505	100	158	stimuli/movNat/waterfall/mn_waterfall04.jpg      	1	2	1	mn_waterfall04.jpg   	movNat   	3	waterfall 	37	waterfall04 	373	not_alive	0	moves	1	natural 	1	n	0	0        	 	0.0	0	106.584093599929	106.684074599994	0.0999810000648722
55655	100	159	stimuli/animals2/lemur/animal_lemur09.jpg        	1	2	1	animal_lemur09.jpg   	animals2 	1	lemur     	23	lemur09     	238	alive    	1	moves	1	natural 	1	n	0	0        	 	0.0	0	106.734084099997	106.834092400037	0.100008300039917
58871	100	160	stimuli/animals/horse/animal_horse10.jpg         	1	3	1	animal_horse10.jpg   	animals  	0	horse     	20	horse10     	209	alive    	1	moves	1	natural 	1	n	0	0        	 	0.0	0	109.95084830001	110.050838300027	0.0999900000169873
59021	100	161	stimuli/nonmovNat/cliff/nmn_cliff01.jpg          	1	3	1	nmn_cliff01.jpg      	nonmovNat	5	cliff     	7	cliff01     	70	not_alive	0	still	0	natural 	1	n	0	0        	 	0.0	0	110.100845400011	110.20084299997	0.0999975999584422
59171	100	162	stimuli/movNat/river/mn_river02.jpg              	1	3	1	mn_river02.jpg       	movNat   	3	river     	29	river02     	291	not_alive	0	moves	1	natural 	1	n	0	0        	 	0.0	0	110.250848499942	110.350843599997	0.0999951000558212
59321	100	163	stimuli/movNat/waterfall/mn_waterfall09.jpg      	1	3	1	mn_waterfall09.jpg   	movNat   	3	waterfall 	37	waterfall09 	378	not_alive	0	moves	1	natural 	1	n	0	0        	 	0.0	0	110.400854900014	110.500848199939	0.0999932999256998
59472	100	164	stimuli/plant2/palmtree/plant_palmtree01.jpg     	1	3	1	plant_palmtree01.jpg 	plant2   	7	palmtree  	27	palmtree01  	270	alive    	1	still	0	natural 	1	n	0	0        	 	0.0	0	110.55087399995	110.650852899998	0.0999789000488818
59622	100	165	stimuli/plant/grass/plant_grass07.jpg            	1	3	1	plant_grass07.jpg    	plant    	6	grass     	17	grass07     	176	alive    	1	still	0	natural 	1	n	0	0        	 	0.0	0	110.700886699953	110.800854900037	0.099968200083822
59771	100	166	stimuli/movArt/boat/ma_boat03.jpg                	1	3	1	ma_boat03.jpg        	movArt   	2	boat      	2	boat03      	22	not_alive	0	moves	1	artefact	0	n	0	0        	 	0.0	0	110.850865099928	110.95089680003	0.100031700101681
59922	100	167	stimuli/movArt/bus/ma_bus02.jpg                  	1	3	1	ma_bus02.jpg         	movArt   	2	bus       	3	bus02       	31	not_alive	0	moves	1	artefact	0	n	0	0        	 	0.0	0	111.000871800003	111.100862200023	0.0999904000200331
60072	100	168	stimuli/nonmovArt/mug/nma_mug09.jpg              	1	3	1	nma_mug09.jpg        	nonmovArt	4	mug       	26	mug09       	268	not_alive	0	still	0	artefact	0	n	0	0        	 	0.0	0	111.15087360004	111.250866499962	0.099992899922654
60222	100	169	stimuli/movArt/car/ma_car05.jpg                  	1	3	1	ma_car05.jpg         	movArt   	2	car       	5	car05       	54	not_alive	0	moves	1	artefact	0	n	0	0        	 	0.0	0	111.300891799969	111.400885400013	0.0999936000443995
60372	100	170	stimuli/animals2/lemur/animal_lemur03.jpg        	1	3	1	animal_lemur03.jpg   	animals2 	1	lemur     	23	lemur03     	232	alive    	1	moves	1	natural 	1	n	0	0        	 	0.0	0	111.45089420001	111.550874199951	0.0999799999408424
60522	100	171	stimuli/animals/dolphin/animal_dolphin10.jpg     	1	3	1	animal_dolphin10.jpg 	animals  	0	dolphin   	12	dolphin10   	129	alive    	1	moves	1	natural 	1	n	0	0        	 	0.0	0	111.600888199988	111.700880000019	0.0999918000306934
60672	100	172	stimuli/animals/horse/animal_horse02.jpg         	1	3	1	animal_horse02.jpg   	animals  	0	horse     	20	horse02     	201	alive    	1	moves	1	natural 	1	n	0	0        	 	0.0	0	111.750888500013	111.850883899955	0.0999953999416903
60822	100	173	stimuli/movArt/boat/ma_boat03.jpg                	1	3	1	ma_boat03.jpg        	movArt   	2	boat      	2	boat03      	22	not_alive	0	moves	1	artefact	0	n	0	0        	 	0.0	0	111.900893499958	112.000888800016	0.0999953000573441
60972	100	174	stimuli/nonmovNat/sand/nmn_sand04.jpg            	1	3	1	nmn_sand04.jpg       	nonmovNat	5	sand      	31	sand04      	313	not_alive	0	still	0	natural 	1	n	0	0        	 	0.0	0	112.050902099931	112.150890899939	0.0999888000078499
61122	100	175	stimuli/nonmovArt/bench/nma_bench07.jpg          	1	3	1	nma_bench07.jpg      	nonmovArt	4	bench     	1	bench07     	16	not_alive	0	still	0	artefact	0	n	0	0        	 	0.0	0	112.200900199939	112.300887599937	0.0999873999971896
61272	100	176	stimuli/nonmovArt/headphones/nma_headphones10.jpg	1	3	1	nma_headphones10.jpg 	nonmovArt	4	headphones	18	headphones10	189	not_alive	0	still	0	artefact	0	n	0	0        	 	0.0	0	112.35089849995	112.450892499997	0.0999940000474453
61422	100	177	stimuli/plant2/clover/plant_clover07.jpg         	1	3	1	plant_clover07.jpg   	plant2   	7	clover    	9	clover07    	96	alive    	1	still	0	natural 	1	n	0	0        	 	0.0	0	112.500902900007	112.600916799973	0.100013899966143
61572	100	178	stimuli/nonmovNat/crystal/nmn_crystal09.jpg      	1	3	1	nmn_crystal09.jpg    	nonmovNat	5	crystal   	10	crystal09   	108	not_alive	0	still	0	natural 	1	n	0	0        	 	0.0	0	112.650907499949	112.750900299987	0.0999928000383079
61722	100	179	stimuli/animals2/bee/animal_bee08.jpg            	1	3	1	animal_bee08.jpg     	animals2 	1	bee       	0	bee08       	7	alive    	1	moves	1	natural 	1	n	0	0        	 	0.0	0	112.800912700011	112.900905899936	0.0999931999249384
61872	100	180	stimuli/nonmovArt/clothespeg/nma_clothespeg05.jpg	1	3	1	nma_clothespeg05.jpg 	nonmovArt	4	clothespeg	8	clothespeg05	84	not_alive	0	still	0	artefact	0	n	0	0        	 	0.0	0	112.950915799942	113.05090859998	0.0999928000383079
62022	100	181	stimuli/nonmovNat/shell/nmn_shell10.jpg          	1	3	1	nmn_shell10.jpg      	nonmovNat	5	shell     	32	shell10     	329	not_alive	0	still	0	natural 	1	n	0	0        	 	0.0	0	113.100917499978	113.20091210003	0.099994600052014
62172	100	182	stimuli/animals/horse/animal_horse03.jpg         	1	3	1	animal_horse03.jpg   	animals  	0	horse     	20	horse03     	202	alive    	1	moves	1	natural 	1	n	0	0        	 	0.0	0	113.250923299929	113.350914599956	0.0999913000268862
62322	100	183	stimuli/plant/tree/plant_tree01.jpg              	1	3	1	plant_tree01.jpg     	plant    	6	tree      	35	tree01      	350	alive    	1	still	0	natural 	1	n	0	0        	 	0.0	0	113.400926699978	113.500920900027	0.0999942000489682
62472	100	184	stimuli/plant/grass/plant_grass06.jpg            	1	3	1	plant_grass06.jpg    	plant    	6	grass     	17	grass06     	175	alive    	1	still	0	natural 	1	n	0	0        	 	0.0	0	113.550930900034	113.650964400033	0.100033499998972
62622	100	185	stimuli/movArt/car/ma_car06.jpg                  	1	3	1	ma_car06.jpg         	movArt   	2	car       	5	car06       	55	not_alive	0	moves	1	artefact	0	n	0	0        	 	0.0	0	113.700933699962	113.800927600008	0.0999939000466838
62772	100	186	stimuli/animals2/whale/animal_whale02.jpg        	1	3	1	animal_whale02.jpg   	animals2 	1	whale     	39	whale02     	391	alive    	1	moves	1	natural 	1	n	0	0        	 	0.0	0	113.850939900032	113.950931699947	0.0999917999142781
62922	100	187	stimuli/nonmovArt/headphones/nma_headphones06.jpg	1	3	1	nma_headphones06.jpg 	nonmovArt	4	headphones	18	headphones06	185	not_alive	0	still	0	artefact	0	n	1	0        	 	0.0	0	114.000961799989	114.100937400013	0.0999756000237539
63072	100	188	stimuli/movArt/train/ma_train01.jpg              	1	3	1	ma_train01.jpg       	movArt   	2	train     	34	train01     	340	not_alive	0	moves	1	artefact	0	n	0	1        	f	0.250229900004342	1	114.150949100032	114.25094129995	0.0999921999173239
63222	100	189	stimuli/animals2/lemur/animal_lemur08.jpg        	1	3	1	animal_lemur08.jpg   	animals2 	1	lemur     	23	lemur08     	237	alive    	1	moves	1	natural 	1	n	0	0        	 	0.0	0	114.300952299964	114.400974199991	0.100021900027059
63372	100	190	stimuli/plant2/fern/plant_fern06.jpg             	1	3	1	plant_fern06.jpg     	plant2   	7	fern      	14	fern06      	145	alive    	1	still	0	natural 	1	n	0	0        	 	0.0	0	114.450954600004	114.55094570003	0.0999911000253633
63522	100	191	stimuli/animals/cat/animal_cat04.jpg             	1	3	1	animal_cat04.jpg     	animals  	0	cat       	6	cat04       	63	alive    	1	moves	1	natural 	1	n	0	0        	 	0.0	0	114.60095969995	114.700952299987	0.099992600036785
63672	100	192	stimuli/movNat/hotspring/mn_hotspring04.jpg      	1	3	1	mn_hotspring04.jpg   	movNat   	3	hotspring 	21	hotspring04 	213	not_alive	0	moves	1	natural 	1	n	0	0        	 	0.0	0	114.750959999976	114.850955700036	0.0999957000603899
63822	100	193	stimuli/animals/dog/animal_dog10.jpg             	1	3	1	animal_dog10.jpg     	animals  	0	dog       	11	dog10       	119	alive    	1	moves	1	natural 	1	n	0	0        	 	0.0	0	114.900964800036	115.000974999974	0.100010199937969
63972	100	194	stimuli/plant2/lemontree/plant_lemontree10.jpg   	1	3	1	plant_lemontree10.jpg	plant2   	7	lemontree 	22	lemontree10 	229	alive    	1	still	0	natural 	1	n	0	0        	 	0.0	0	115.050974100013	115.150976800011	0.100002699997276
64122	100	195	stimuli/animals/dog/animal_dog07.jpg             	1	3	1	animal_dog07.jpg     	animals  	0	dog       	11	dog07       	116	alive    	1	moves	1	natural 	1	n	0	0        	 	0.0	0	115.200990599929	115.300965899951	0.0999753000214696
64272	100	196	stimuli/nonmovArt/mug/nma_mug02.jpg              	1	3	1	nma_mug02.jpg        	nonmovArt	4	mug       	26	mug02       	261	not_alive	0	still	0	artefact	0	n	0	0        	 	0.0	0	115.350978699978	115.450971200014	0.0999925000360236
64422	100	197	stimuli/movNat/river/mn_river04.jpg              	1	3	1	mn_river04.jpg       	movNat   	3	river     	29	river04     	293	not_alive	0	moves	1	natural 	1	n	0	0        	 	0.0	0	115.501027800026	115.600975599955	0.0999477999284864
64572	100	198	stimuli/movArt/helicopter/ma_helicopter05.jpg    	1	3	1	ma_helicopter05.jpg  	movArt   	2	helicopter	19	helicopter05	194	not_alive	0	moves	1	artefact	0	n	0	0        	 	0.0	0	115.650986099965	115.750992599991	0.100006500026211
64722	100	199	stimuli/plant2/palmtree/plant_palmtree01.jpg     	1	3	1	plant_palmtree01.jpg 	plant2   	7	palmtree  	27	palmtree01  	270	alive    	1	still	0	natural 	1	n	0	0        	 	0.0	0	115.801007500035	115.900986199966	0.0999786999309436
64872	100	200	stimuli/animals2/whale/animal_whale04.jpg        	1	3	1	animal_whale04.jpg   	animals2 	1	whale     	39	whale04     	393	alive    	1	moves	1	natural 	1	n	0	0        	 	0.0	0	115.950995299965	116.0509876	0.0999923000345007
65022	100	201	stimuli/nonmovNat/rock/nmn_rock02.jpg            	1	3	1	nmn_rock02.jpg       	nonmovNat	5	rock      	30	rock02      	301	not_alive	0	still	0	natural 	1	n	0	0        	 	0.0	0	116.100997900008	116.200993399951	0.0999954999424517
65172	100	202	stimuli/nonmovArt/clothespeg/nma_clothespeg05.jpg	1	3	1	nma_clothespeg05.jpg 	nonmovArt	4	clothespeg	8	clothespeg05	84	not_alive	0	still	0	artefact	0	n	0	0        	 	0.0	0	116.251046399935	116.35099419998	0.0999478000449017
65322	100	203	stimuli/animals2/pigeon/animal_pigeon04.jpg      	1	3	1	animal_pigeon04.jpg  	animals2 	1	pigeon    	28	pigeon04    	283	alive    	1	moves	1	natural 	1	n	0	0        	 	0.0	0	116.401007500011	116.501017199946	0.100009699934162
65472	100	204	stimuli/nonmovNat/rock/nmn_rock05.jpg            	1	3	1	nmn_rock05.jpg       	nonmovNat	5	rock      	30	rock05      	304	not_alive	0	still	0	natural 	1	n	0	0        	 	0.0	0	116.551013799966	116.651004099986	0.0999903000192717
65622	100	205	stimuli/plant2/lemontree/plant_lemontree08.jpg   	1	3	1	plant_lemontree08.jpg	plant2   	7	lemontree 	22	lemontree08 	227	alive    	1	still	0	natural 	1	n	0	0        	 	0.0	0	116.701016200008	116.801010799943	0.0999945999355987
65772	100	206	stimuli/movArt/helicopter/ma_helicopter05.jpg    	1	3	1	ma_helicopter05.jpg  	movArt   	2	helicopter	19	helicopter05	194	not_alive	0	moves	1	artefact	0	n	0	0        	 	0.0	0	116.851042900002	116.95101259998	0.0999696999788284
65922	100	207	stimuli/animals/dog/animal_dog06.jpg             	1	3	1	animal_dog06.jpg     	animals  	0	dog       	11	dog06       	115	alive    	1	moves	1	natural 	1	n	0	0        	 	0.0	0	117.001037099981	117.101015200024	0.0999781000427902
66072	100	208	stimuli/movArt/train/ma_train09.jpg              	1	3	1	ma_train09.jpg       	movArt   	2	train     	34	train09     	348	not_alive	0	moves	1	artefact	0	n	0	0        	 	0.0	0	117.151026300038	117.251038699993	0.100012399954721
66222	100	209	stimuli/plant/cactus/plant_cactus05.jpg          	1	3	1	plant_cactus05.jpg   	plant    	6	cactus    	4	cactus05    	44	alive    	1	still	0	natural 	1	n	1	0        	 	0.0	0	117.301047599991	117.401022900012	0.0999753000214696
66372	100	210	stimuli/nonmovArt/bench/nma_bench08.jpg          	1	3	1	nma_bench08.jpg      	nonmovArt	4	bench     	1	bench08     	17	not_alive	0	still	0	artefact	0	n	0	0        	 	0.0	0	117.45103440003	117.551027099951	0.0999926999211311
66522	100	211	stimuli/plant/vine/plant_vine08.jpg              	1	3	1	plant_vine08.jpg     	plant    	6	vine      	36	vine08      	367	alive    	1	still	0	natural 	1	n	0	1        	f	0.292128799948841	1	117.601050499943	117.701031300006	0.0999808000633493
66672	100	212	stimuli/nonmovArt/lock/nma_lock07.jpg            	1	3	1	nma_lock07.jpg       	nonmovArt	4	lock      	24	lock07      	246	not_alive	0	still	0	artefact	0	n	0	0        	 	0.0	0	117.751049299957	117.851036499953	0.0999871999956667
66822	100	213	stimuli/nonmovArt/bench/nma_bench09.jpg          	1	3	1	nma_bench09.jpg      	nonmovArt	4	bench     	1	bench09     	18	not_alive	0	still	0	artefact	0	n	0	0        	 	0.0	0	117.901045399951	118.00104090001	0.099995500058867
66972	100	214	stimuli/plant2/clover/plant_clover04.jpg         	1	3	1	plant_clover04.jpg   	plant2   	7	clover    	9	clover04    	93	alive    	1	still	0	natural 	1	n	0	0        	 	0.0	0	118.051050900016	118.151042300044	0.0999914000276476
67122	100	215	stimuli/nonmovNat/sand/nmn_sand06.jpg            	1	3	1	nmn_sand06.jpg       	nonmovNat	5	sand      	31	sand06      	315	not_alive	0	still	0	natural 	1	n	0	0        	 	0.0	0	118.201054399949	118.301066200016	0.100011800066568
67272	100	216	stimuli/plant/flower/plant_flower10.jpg          	1	3	1	plant_flower10.jpg   	plant    	6	flower    	16	flower10    	169	alive    	1	still	0	natural 	1	n	0	0        	 	0.0	0	118.351060400018	118.451049900032	0.0999895000131801
67422	100	217	stimuli/movNat/fire/mn_fire03.jpg                	1	3	1	mn_fire03.jpg        	movNat   	3	fire      	15	fire03      	152	not_alive	0	moves	1	natural 	1	n	0	0        	 	0.0	0	118.501061299932	118.601055099978	0.0999938000459224
67572	100	218	stimuli/plant/grass/plant_grass10.jpg            	1	3	1	plant_grass10.jpg    	plant    	6	grass     	17	grass10     	179	alive    	1	still	0	natural 	1	n	0	0        	 	0.0	0	118.65106579999	118.751058300026	0.0999925000360236
67722	100	219	stimuli/animals/dolphin/animal_dolphin10.jpg     	1	3	1	animal_dolphin10.jpg 	animals  	0	dolphin   	12	dolphin10   	129	alive    	1	moves	1	natural 	1	n	0	0        	 	0.0	0	118.801069899928	118.901062099962	0.0999922000337392
67872	100	220	stimuli/plant2/fern/plant_fern10.jpg             	1	3	1	plant_fern10.jpg     	plant2   	7	fern      	14	fern10      	149	alive    	1	still	0	natural 	1	n	1	0        	 	0.0	0	118.951071999967	119.051068100031	0.0999961000634357
68022	100	221	stimuli/plant/vine/plant_vine08.jpg              	1	3	1	plant_vine08.jpg     	plant    	6	vine      	36	vine08      	367	alive    	1	still	0	natural 	1	n	0	0        	 	0.0	0	119.101077400032	119.201092600008	0.100015199976042
68172	100	222	stimuli/nonmovArt/lock/nma_lock07.jpg            	1	3	1	nma_lock07.jpg       	nonmovArt	4	lock      	24	lock07      	246	not_alive	0	still	0	artefact	0	n	0	1        	f	0.391996399965137	1	119.251081899973	119.351074300008	0.0999924000352621
68322	100	223	stimuli/nonmovNat/sand/nmn_sand09.jpg            	1	3	1	nmn_sand09.jpg       	nonmovNat	5	sand      	31	sand09      	318	not_alive	0	still	0	natural 	1	n	0	0        	 	0.0	0	119.401084300014	119.50108149997	0.0999971999553964
68472	100	224	stimuli/animals/eagle/animal_eagle01.jpg         	1	3	1	animal_eagle01.jpg   	animals  	0	eagle     	13	eagle01     	130	alive    	1	moves	1	natural 	1	n	0	0        	 	0.0	0	119.551087999949	119.651083200006	0.0999952000565827
68622	100	225	stimuli/animals2/whale/animal_whale03.jpg        	1	3	1	animal_whale03.jpg   	animals2 	1	whale     	39	whale03     	392	alive    	1	moves	1	natural 	1	n	0	0        	 	0.0	0	119.701092600008	119.801086499938	0.0999938999302685
68772	100	226	stimuli/movNat/fire/mn_fire04.jpg                	1	3	1	mn_fire04.jpg        	movNat   	3	fire      	15	fire04      	153	not_alive	0	moves	1	natural 	1	n	0	0        	 	0.0	0	119.851098499959	119.951121599996	0.100023100036196
68922	100	227	stimuli/movArt/bus/ma_bus03.jpg                  	1	3	1	ma_bus03.jpg         	movArt   	2	bus       	3	bus03       	32	not_alive	0	moves	1	artefact	0	n	0	0        	 	0.0	0	120.001101000002	120.101094799931	0.0999937999295071
69072	100	228	stimuli/nonmovNat/shell/nmn_shell09.jpg          	1	3	1	nmn_shell09.jpg      	nonmovNat	5	shell     	32	shell09     	328	not_alive	0	still	0	natural 	1	n	0	0        	 	0.0	0	120.151105599944	120.251098299981	0.0999927000375465
69222	100	229	stimuli/animals/eagle/animal_eagle05.jpg         	1	3	1	animal_eagle05.jpg   	animals  	0	eagle     	13	eagle05     	134	alive    	1	moves	1	natural 	1	n	0	0        	 	0.0	0	120.30110869999	120.401102700038	0.0999940000474453
69372	100	230	stimuli/movNat/waves/mn_waves04.jpg              	1	3	1	mn_waves04.jpg       	movNat   	3	waves     	38	waves04     	383	not_alive	0	moves	1	natural 	1	n	0	0        	 	0.0	0	120.451112600043	120.551123499987	0.1000108999433
69522	100	231	stimuli/nonmovNat/shell/nmn_shell10.jpg          	1	3	1	nmn_shell10.jpg      	nonmovNat	5	shell     	32	shell10     	329	not_alive	0	still	0	natural 	1	n	0	0        	 	0.0	0	120.601117499988	120.701133199967	0.100015699979849
69672	100	232	stimuli/movNat/hotspring/mn_hotspring03.jpg      	1	3	1	mn_hotspring03.jpg   	movNat   	3	hotspring 	21	hotspring03 	212	not_alive	0	moves	1	natural 	1	n	0	0        	 	0.0	0	120.751121999929	120.851114199962	0.0999922000337392
69822	100	233	stimuli/nonmovNat/crystal/nmn_crystal04.jpg      	1	3	1	nmn_crystal04.jpg    	nonmovNat	5	crystal   	10	crystal04   	103	not_alive	0	still	0	natural 	1	n	0	0        	 	0.0	0	120.901124199969	121.001117600012	0.0999934000428766
69972	100	234	stimuli/nonmovNat/cliff/nmn_cliff02.jpg          	1	3	1	nmn_cliff02.jpg      	nonmovNat	5	cliff     	7	cliff02     	71	not_alive	0	still	0	natural 	1	n	0	0        	 	0.0	0	121.051144800032	121.151120799943	0.0999759999103844
70122	100	235	stimuli/movNat/waterfall/mn_waterfall04.jpg      	1	3	1	mn_waterfall04.jpg   	movNat   	3	waterfall 	37	waterfall04 	373	not_alive	0	moves	1	natural 	1	n	0	0        	 	0.0	0	121.201114199939	121.301145100035	0.100030900095589
70272	100	236	stimuli/plant2/moss/plant_moss03.jpg             	1	3	1	plant_moss03.jpg     	plant2   	7	moss      	25	moss03      	252	alive    	1	still	0	natural 	1	n	0	0        	 	0.0	0	121.351134900004	121.451143200044	0.100008300039917
70422	100	237	stimuli/plant2/clover/plant_clover08.jpg         	1	3	1	plant_clover08.jpg   	plant2   	7	clover    	9	clover08    	97	alive    	1	still	0	natural 	1	n	0	0        	 	0.0	0	121.50114139996	121.601135500008	0.0999941000482068
70572	100	238	stimuli/nonmovNat/cliff/nmn_cliff09.jpg          	1	3	1	nmn_cliff09.jpg      	nonmovNat	5	cliff     	7	cliff09     	78	not_alive	0	still	0	natural 	1	n	0	0        	 	0.0	0	121.651144200005	121.751137999934	0.0999937999295071
70722	100	239	stimuli/nonmovArt/mug/nma_mug10.jpg              	1	3	1	nma_mug10.jpg        	nonmovArt	4	mug       	26	mug10       	269	not_alive	0	still	0	artefact	0	n	0	0        	 	0.0	0	121.801185699995	121.901141699986	0.0999559999909252
73172	100	240	stimuli/nonmovArt/clothespeg/nma_clothespeg02.jpg	1	4	1	nma_clothespeg02.jpg 	nonmovArt	4	clothespeg	8	clothespeg02	81	not_alive	0	still	0	artefact	0	n	0	0        	 	0.0	0	124.251223600004	124.35122479999	0.100001199985854
73322	100	241	stimuli/animals2/whale/animal_whale07.jpg        	1	4	1	animal_whale07.jpg   	animals2 	1	whale     	39	whale07     	396	alive    	1	moves	1	natural 	1	n	0	0        	 	0.0	0	124.401225200039	124.501217499957	0.0999922999180853
73472	100	242	stimuli/animals/cat/animal_cat01.jpg             	1	4	1	animal_cat01.jpg     	animals  	0	cat       	6	cat01       	60	alive    	1	moves	1	natural 	1	n	0	0        	 	0.0	0	124.551235400024	124.651224500034	0.0999891000101343
73622	100	243	stimuli/plant2/fern/plant_fern06.jpg             	1	4	1	plant_fern06.jpg     	plant2   	7	fern      	14	fern06      	145	alive    	1	still	0	natural 	1	n	0	0        	 	0.0	0	124.701231300016	124.801226199954	0.099994899937883
73772	100	244	stimuli/animals2/whale/animal_whale06.jpg        	1	4	1	animal_whale06.jpg   	animals2 	1	whale     	39	whale06     	395	alive    	1	moves	1	natural 	1	n	0	0        	 	0.0	0	124.851233999943	124.951240899973	0.100006900029257
73922	100	245	stimuli/plant2/moss/plant_moss10.jpg             	1	4	1	plant_moss10.jpg     	plant2   	7	moss      	25	moss10      	259	alive    	1	still	0	natural 	1	n	0	0        	 	0.0	0	125.001249299967	125.101230600034	0.0999813000671566
74072	100	246	stimuli/plant/vine/plant_vine09.jpg              	1	4	1	plant_vine09.jpg     	plant    	6	vine      	36	vine09      	368	alive    	1	still	0	natural 	1	n	0	0        	 	0.0	0	125.151260399958	125.251247299952	0.0999868999933824
74222	100	247	stimuli/plant/cactus/plant_cactus04.jpg          	1	4	1	plant_cactus04.jpg   	plant    	6	cactus    	4	cactus04    	43	alive    	1	still	0	natural 	1	n	0	0        	 	0.0	0	125.301275099977	125.401243899949	0.0999687999719754
74372	100	248	stimuli/nonmovNat/rock/nmn_rock10.jpg            	1	4	1	nmn_rock10.jpg       	nonmovNat	5	rock      	30	rock10      	309	not_alive	0	still	0	natural 	1	n	0	0        	 	0.0	0	125.451259599999	125.55125759996	0.099997999961488
74522	100	249	stimuli/movNat/river/mn_river10.jpg              	1	4	1	mn_river10.jpg       	movNat   	3	river     	29	river10     	299	not_alive	0	moves	1	natural 	1	n	0	0        	 	0.0	0	125.601257700007	125.701263800031	0.100006100023165
74672	100	250	stimuli/movNat/hotspring/mn_hotspring06.jpg      	1	4	1	mn_hotspring06.jpg   	movNat   	3	hotspring 	21	hotspring06 	215	not_alive	0	moves	1	natural 	1	n	0	0        	 	0.0	0	125.75125890004	125.85125279997	0.0999938999302685
74822	100	251	stimuli/plant2/moss/plant_moss05.jpg             	1	4	1	plant_moss05.jpg     	plant2   	7	moss      	25	moss05      	254	alive    	1	still	0	natural 	1	n	0	0        	 	0.0	0	125.901279599988	126.001256500022	0.0999769000336528
74972	100	252	stimuli/movArt/car/ma_car08.jpg                  	1	4	1	ma_car08.jpg         	movArt   	2	car       	5	car08       	57	not_alive	0	moves	1	artefact	0	n	0	0        	 	0.0	0	126.051289199968	126.151259199949	0.0999699999811128
75122	100	253	stimuli/animals/dolphin/animal_dolphin06.jpg     	1	4	1	animal_dolphin06.jpg 	animals  	0	dolphin   	12	dolphin06   	125	alive    	1	moves	1	natural 	1	n	0	1        	f	0.0	0	126.201272599981	126.301264900016	0.0999923000345007
75272	100	254	stimuli/nonmovNat/crystal/nmn_crystal05.jpg      	1	4	1	nmn_crystal05.jpg    	nonmovNat	5	crystal   	10	crystal05   	104	not_alive	0	still	0	natural 	1	n	0	0        	 	0.0	0	126.351276800036	126.451322600013	0.100045799976215
75422	100	255	stimuli/movNat/hotspring/mn_hotspring03.jpg      	1	4	1	mn_hotspring03.jpg   	movNat   	3	hotspring 	21	hotspring03 	212	not_alive	0	moves	1	natural 	1	n	0	0        	 	0.0	0	126.50129299995	126.601278999937	0.0999859999865294
75572	100	256	stimuli/movNat/fire/mn_fire03.jpg                	1	4	1	mn_fire03.jpg        	movNat   	3	fire      	15	fire03      	152	not_alive	0	moves	1	natural 	1	n	0	0        	 	0.0	0	126.651301200036	126.751574599999	0.100273399963044
75722	100	257	stimuli/movArt/boat/ma_boat08.jpg                	1	4	1	ma_boat08.jpg        	movArt   	2	boat      	2	boat08      	27	not_alive	0	moves	1	artefact	0	n	0	0        	 	0.0	0	126.801317499951	126.901277399971	0.0999599000206217
75872	100	258	stimuli/movArt/train/ma_train05.jpg              	1	4	1	ma_train05.jpg       	movArt   	2	train     	34	train05     	344	not_alive	0	moves	1	artefact	0	n	0	0        	 	0.0	0	126.951287199976	127.051283800043	0.099996600067243
76022	100	259	stimuli/nonmovArt/bench/nma_bench01.jpg          	1	4	1	nma_bench01.jpg      	nonmovArt	4	bench     	1	bench01     	10	not_alive	0	still	0	artefact	0	n	0	0        	 	0.0	0	127.101293999935	127.201285799965	0.0999918000306934
76172	100	260	stimuli/movArt/boat/ma_boat07.jpg                	1	4	1	ma_boat07.jpg        	movArt   	2	boat      	2	boat07      	26	not_alive	0	moves	1	artefact	0	n	0	0        	 	0.0	0	127.251307999948	127.351295599947	0.0999875999987125
76322	100	261	stimuli/plant/vine/plant_vine10.jpg              	1	4	1	plant_vine10.jpg     	plant    	6	vine      	36	vine10      	369	alive    	1	still	0	natural 	1	n	0	0        	 	0.0	0	127.40130519995	127.501331100008	0.100025900057517
76472	100	262	stimuli/plant2/moss/plant_moss06.jpg             	1	4	1	plant_moss06.jpg     	plant2   	7	moss      	25	moss06      	255	alive    	1	still	0	natural 	1	n	0	0        	 	0.0	0	127.551310600014	127.651306099957	0.0999954999424517
76622	100	263	stimuli/animals2/lemur/animal_lemur07.jpg        	1	4	1	animal_lemur07.jpg   	animals2 	1	lemur     	23	lemur07     	236	alive    	1	moves	1	natural 	1	n	1	0        	 	0.0	0	127.701310300035	127.801305599976	0.0999952999409288
76772	100	264	stimuli/animals/dolphin/animal_dolphin01.jpg     	1	4	1	animal_dolphin01.jpg 	animals  	0	dolphin   	12	dolphin01   	120	alive    	1	moves	1	natural 	1	n	0	1        	f	0.242181099951267	1	127.851430699928	127.951314499951	0.0998838000232354
76922	100	265	stimuli/movNat/waterfall/mn_waterfall02.jpg      	1	4	1	mn_waterfall02.jpg   	movNat   	3	waterfall 	37	waterfall02 	371	not_alive	0	moves	1	natural 	1	n	0	0        	 	0.0	0	128.001331200008	128.101314199972	0.0999829999636859
77072	100	266	stimuli/animals/dog/animal_dog02.jpg             	1	4	1	animal_dog02.jpg     	animals  	0	dog       	11	dog02       	111	alive    	1	moves	1	natural 	1	n	0	0        	 	0.0	0	128.151324699982	128.251337099937	0.100012399954721
77222	100	267	stimuli/nonmovArt/headphones/nma_headphones08.jpg	1	4	1	nma_headphones08.jpg 	nonmovArt	4	headphones	18	headphones08	187	not_alive	0	still	0	artefact	0	n	0	0        	 	0.0	0	128.301328900037	128.401320099947	0.0999911999097094
77372	100	268	stimuli/nonmovNat/crystal/nmn_crystal02.jpg      	1	4	1	nmn_crystal02.jpg    	nonmovNat	5	crystal   	10	crystal02   	101	not_alive	0	still	0	natural 	1	n	0	0        	 	0.0	0	128.451329799951	128.551325100008	0.0999953000573441
77522	100	269	stimuli/nonmovArt/mug/nma_mug10.jpg              	1	4	1	nma_mug10.jpg        	nonmovArt	4	mug       	26	mug10       	269	not_alive	0	still	0	artefact	0	n	0	0        	 	0.0	0	128.60133710003	128.701328999945	0.0999918999150395
77672	100	270	stimuli/movNat/river/mn_river01.jpg              	1	4	1	mn_river01.jpg       	movNat   	3	river     	29	river01     	290	not_alive	0	moves	1	natural 	1	n	0	0        	 	0.0	0	128.751341099967	128.851334600011	0.099993500043638
77822	100	271	stimuli/nonmovNat/cliff/nmn_cliff05.jpg          	1	4	1	nmn_cliff05.jpg      	nonmovNat	5	cliff     	7	cliff05     	74	not_alive	0	still	0	natural 	1	n	0	0        	 	0.0	0	128.901341899997	129.001367499935	0.100025599938817
77972	100	272	stimuli/nonmovArt/lock/nma_lock03.jpg            	1	4	1	nma_lock03.jpg       	nonmovArt	4	lock      	24	lock03      	242	not_alive	0	still	0	artefact	0	n	0	0        	 	0.0	0	129.051347899949	129.151341199991	0.0999933000421152
78122	100	273	stimuli/nonmovArt/clothespeg/nma_clothespeg03.jpg	1	4	1	nma_clothespeg03.jpg 	nonmovArt	4	clothespeg	8	clothespeg03	82	not_alive	0	still	0	artefact	0	n	0	0        	 	0.0	0	129.201351600001	129.301346399938	0.0999947999371216
78272	100	274	stimuli/movNat/waves/mn_waves08.jpg              	1	4	1	mn_waves08.jpg       	movNat   	3	waves     	38	waves08     	387	not_alive	0	moves	1	natural 	1	n	0	0        	 	0.0	0	129.351355199935	129.451349799987	0.099994600052014
78422	100	275	stimuli/plant/flower/plant_flower02.jpg          	1	4	1	plant_flower02.jpg   	plant    	6	flower    	16	flower02    	161	alive    	1	still	0	natural 	1	n	0	0        	 	0.0	0	129.501363900024	129.601368400035	0.100004500010982
78572	100	276	stimuli/nonmovArt/mug/nma_mug05.jpg              	1	4	1	nma_mug05.jpg        	nonmovArt	4	mug       	26	mug05       	264	not_alive	0	still	0	artefact	0	n	0	0        	 	0.0	0	129.651364199934	129.751384299947	0.100020100013353
78722	100	277	stimuli/animals/dog/animal_dog09.jpg             	1	4	1	animal_dog09.jpg     	animals  	0	dog       	11	dog09       	118	alive    	1	moves	1	natural 	1	n	0	0        	 	0.0	0	129.801372700022	129.901361500029	0.0999888000078499
78872	100	278	stimuli/movNat/waterfall/mn_waterfall08.jpg      	1	4	1	mn_waterfall08.jpg   	movNat   	3	waterfall 	37	waterfall08 	377	not_alive	0	moves	1	natural 	1	n	0	0        	 	0.0	0	129.951371400035	130.05136329995	0.0999918999150395
79022	100	279	stimuli/plant2/clover/plant_clover06.jpg         	1	4	1	plant_clover06.jpg   	plant2   	7	clover    	9	clover06    	95	alive    	1	still	0	natural 	1	n	0	0        	 	0.0	0	130.101394700003	130.201372400043	0.0999777000397444
79172	100	280	stimuli/plant2/fern/plant_fern02.jpg             	1	4	1	plant_fern02.jpg     	plant2   	7	fern      	14	fern02      	141	alive    	1	still	0	natural 	1	n	0	0        	 	0.0	0	130.251380600035	130.351387499948	0.100006899912842
79322	100	281	stimuli/animals2/lemur/animal_lemur05.jpg        	1	4	1	animal_lemur05.jpg   	animals2 	1	lemur     	23	lemur05     	234	alive    	1	moves	1	natural 	1	n	0	0        	 	0.0	0	130.401386099984	130.501395800035	0.100009700050578
79472	100	282	stimuli/movArt/car/ma_car05.jpg                  	1	4	1	ma_car05.jpg         	movArt   	2	car       	5	car05       	54	not_alive	0	moves	1	artefact	0	n	1	0        	 	0.0	0	130.551385800005	130.651379299932	0.0999934999272227
79622	100	283	stimuli/plant/tree/plant_tree08.jpg              	1	4	1	plant_tree08.jpg     	plant    	6	tree      	35	tree08      	357	alive    	1	still	0	natural 	1	n	0	0        	 	0.0	0	130.70139209996	130.801382399979	0.0999903000192717
79772	100	284	stimuli/animals/dolphin/animal_dolphin09.jpg     	1	4	1	animal_dolphin09.jpg 	animals  	0	dolphin   	12	dolphin09   	128	alive    	1	moves	1	natural 	1	n	0	1        	f	0.29220229992643	1	130.851423399989	130.951387700043	0.0999643000541255
79922	100	285	stimuli/animals2/tiger/animal_tiger05.jpg        	1	4	1	animal_tiger05.jpg   	animals2 	1	tiger     	33	tiger05     	334	alive    	1	moves	1	natural 	1	n	0	0        	 	0.0	0	131.00139999995	131.101392399985	0.0999924000352621
80072	100	286	stimuli/movArt/helicopter/ma_helicopter06.jpg    	1	4	1	ma_helicopter06.jpg  	movArt   	2	helicopter	19	helicopter06	195	not_alive	0	moves	1	artefact	0	n	0	0        	 	0.0	0	131.151404400007	131.251394200022	0.0999898000154644
80222	100	287	stimuli/plant/flower/plant_flower07.jpg          	1	4	1	plant_flower07.jpg   	plant    	6	flower    	16	flower07    	166	alive    	1	still	0	natural 	1	n	0	0        	 	0.0	0	131.301404600032	131.401400999981	0.0999963999493048
80372	100	288	stimuli/animals/horse/animal_horse07.jpg         	1	4	1	animal_horse07.jpg   	animals  	0	horse     	20	horse07     	206	alive    	1	moves	1	natural 	1	n	0	0        	 	0.0	0	131.451426399988	131.551403600024	0.0999772000359371
80522	100	289	stimuli/nonmovNat/sand/nmn_sand07.jpg            	1	4	1	nmn_sand07.jpg       	nonmovNat	5	sand      	31	sand07      	316	not_alive	0	still	0	natural 	1	n	0	0        	 	0.0	0	131.601438199985	131.701401200029	0.0999630000442266
80672	100	290	stimuli/nonmovNat/cliff/nmn_cliff01.jpg          	1	4	1	nmn_cliff01.jpg      	nonmovNat	5	cliff     	7	cliff01     	70	not_alive	0	still	0	natural 	1	n	0	0        	 	0.0	0	131.751410700032	131.851420699968	0.100009999936447
80822	100	291	stimuli/nonmovNat/sand/nmn_sand06.jpg            	1	4	1	nmn_sand06.jpg       	nonmovNat	5	sand      	31	sand06      	315	not_alive	0	still	0	natural 	1	n	1	0        	 	0.0	0	131.901415499975	132.00141050003	0.0999950000550598
80972	100	292	stimuli/animals2/bee/animal_bee09.jpg            	1	4	1	animal_bee09.jpg     	animals2 	1	bee       	0	bee09       	8	alive    	1	moves	1	natural 	1	n	0	1        	f	0.253779000020586	1	132.051435100031	132.151423700037	0.099988600006327
81122	100	293	stimuli/movArt/bus/ma_bus10.jpg                  	1	4	1	ma_bus10.jpg         	movArt   	2	bus       	3	bus10       	39	not_alive	0	moves	1	artefact	0	n	0	0        	 	0.0	0	132.20145589998	132.301416400005	0.0999605000251904
81272	100	294	stimuli/plant/grass/plant_grass10.jpg            	1	4	1	plant_grass10.jpg    	plant    	6	grass     	17	grass10     	179	alive    	1	still	0	natural 	1	n	0	0        	 	0.0	0	132.351441600011	132.451419999939	0.0999783999286592
81422	100	295	stimuli/plant/vine/plant_vine10.jpg              	1	4	1	plant_vine10.jpg     	plant    	6	vine      	36	vine10      	369	alive    	1	still	0	natural 	1	n	0	0        	 	0.0	0	132.501430999953	132.601431099931	0.100000099977478
81572	100	296	stimuli/animals2/pigeon/animal_pigeon06.jpg      	1	4	1	animal_pigeon06.jpg  	animals2 	1	pigeon    	28	pigeon06    	285	alive    	1	moves	1	natural 	1	n	0	0        	 	0.0	0	132.651432299986	132.751428699936	0.0999963999493048
81722	100	297	stimuli/nonmovNat/sand/nmn_sand07.jpg            	1	4	1	nmn_sand07.jpg       	nonmovNat	5	sand      	31	sand07      	316	not_alive	0	still	0	natural 	1	n	0	0        	 	0.0	0	132.801441399963	132.901431099977	0.099989700014703
81872	100	298	stimuli/movNat/waves/mn_waves08.jpg              	1	4	1	mn_waves08.jpg       	movNat   	3	waves     	38	waves08     	387	not_alive	0	moves	1	natural 	1	n	0	0        	 	0.0	0	132.951454199967	133.051438799943	0.0999845999758691
82022	100	299	stimuli/nonmovNat/rock/nmn_rock02.jpg            	1	4	1	nmn_rock02.jpg       	nonmovNat	5	rock      	30	rock02      	301	not_alive	0	still	0	natural 	1	n	0	0        	 	0.0	0	133.101448299945	133.201440199977	0.0999919000314549
82172	100	300	stimuli/animals/eagle/animal_eagle08.jpg         	1	4	1	animal_eagle08.jpg   	animals  	0	eagle     	13	eagle08     	137	alive    	1	moves	1	natural 	1	n	0	0        	 	0.0	0	133.251452900004	133.35144550004	0.099992600036785
82322	100	301	stimuli/plant/grass/plant_grass08.jpg            	1	4	1	plant_grass08.jpg    	plant    	6	grass     	17	grass08     	177	alive    	1	still	0	natural 	1	n	0	0        	 	0.0	0	133.401458799955	133.501463099965	0.100004300009459
82472	100	302	stimuli/nonmovArt/lock/nma_lock08.jpg            	1	4	1	nma_lock08.jpg       	nonmovArt	4	lock      	24	lock08      	247	not_alive	0	still	0	artefact	0	n	0	0        	 	0.0	0	133.551459599985	133.651454800041	0.0999952000565827
82622	100	303	stimuli/animals/eagle/animal_eagle06.jpg         	1	4	1	animal_eagle06.jpg   	animals  	0	eagle     	13	eagle06     	135	alive    	1	moves	1	natural 	1	n	0	0        	 	0.0	0	133.701464299927	133.80145759997	0.0999933000421152
82772	100	304	stimuli/movNat/fire/mn_fire09.jpg                	1	4	1	mn_fire09.jpg        	movNat   	3	fire      	15	fire09      	158	not_alive	0	moves	1	natural 	1	n	0	0        	 	0.0	0	133.851468499983	133.951463100035	0.099994600052014
82922	100	305	stimuli/animals/eagle/animal_eagle09.jpg         	1	4	1	animal_eagle09.jpg   	animals  	0	eagle     	13	eagle09     	138	alive    	1	moves	1	natural 	1	n	0	0        	 	0.0	0	134.001470500021	134.101466599968	0.0999960999470204
83072	100	306	stimuli/nonmovArt/lock/nma_lock04.jpg            	1	4	1	nma_lock04.jpg       	nonmovArt	4	lock      	24	lock04      	243	not_alive	0	still	0	artefact	0	n	0	0        	 	0.0	0	134.151476099971	134.251468500006	0.0999924000352621
83222	100	307	stimuli/nonmovNat/shell/nmn_shell02.jpg          	1	4	1	nmn_shell02.jpg      	nonmovNat	5	shell     	32	shell02     	321	not_alive	0	still	0	natural 	1	n	0	0        	 	0.0	0	134.301480100025	134.401474499959	0.0999943999340758
83372	100	308	stimuli/animals2/tiger/animal_tiger03.jpg        	1	4	1	animal_tiger03.jpg   	animals2 	1	tiger     	33	tiger03     	332	alive    	1	moves	1	natural 	1	n	0	0        	 	0.0	0	134.451502699987	134.551477300003	0.0999746000161394
83522	100	309	stimuli/plant2/lemontree/plant_lemontree06.jpg   	1	4	1	plant_lemontree06.jpg	plant2   	7	lemontree 	22	lemontree06 	225	alive    	1	still	0	natural 	1	n	0	0        	 	0.0	0	134.601487200009	134.70147989993	0.0999926999211311
83672	100	310	stimuli/animals/horse/animal_horse01.jpg         	1	4	1	animal_horse01.jpg   	animals  	0	horse     	20	horse01     	200	alive    	1	moves	1	natural 	1	n	0	0        	 	0.0	0	134.751489199931	134.851483899984	0.0999947000527754
83822	100	311	stimuli/animals2/whale/animal_whale10.jpg        	1	4	1	animal_whale10.jpg   	animals2 	1	whale     	39	whale10     	399	alive    	1	moves	1	natural 	1	n	0	0        	 	0.0	0	134.901512700017	135.00148830004	0.0999756000237539
83972	100	312	stimuli/plant2/clover/plant_clover01.jpg         	1	4	1	plant_clover01.jpg   	plant2   	7	clover    	9	clover01    	90	alive    	1	still	0	natural 	1	n	0	0        	 	0.0	0	135.051497100038	135.15149259998	0.0999954999424517
84122	100	313	stimuli/nonmovNat/cliff/nmn_cliff02.jpg          	1	4	1	nmn_cliff02.jpg      	nonmovNat	5	cliff     	7	cliff02     	71	not_alive	0	still	0	natural 	1	n	0	0        	 	0.0	0	135.201502499986	135.301496700034	0.0999942000489682
84272	100	314	stimuli/plant2/palmtree/plant_palmtree06.jpg     	1	4	1	plant_palmtree06.jpg 	plant2   	7	palmtree  	27	palmtree06  	275	alive    	1	still	0	natural 	1	n	0	0        	 	0.0	0	135.351507799933	135.451502399985	0.099994600052014
84422	100	315	stimuli/movArt/helicopter/ma_helicopter07.jpg    	1	4	1	ma_helicopter07.jpg  	movArt   	2	helicopter	19	helicopter07	196	not_alive	0	moves	1	artefact	0	n	0	0        	 	0.0	0	135.501509999973	135.601504200022	0.0999942000489682
84572	100	316	stimuli/plant/tree/plant_tree09.jpg              	1	4	1	plant_tree09.jpg     	plant    	6	tree      	35	tree09      	358	alive    	1	still	0	natural 	1	n	0	0        	 	0.0	0	135.651515400037	135.751507799956	0.0999923999188468
84722	100	317	stimuli/animals2/bee/animal_bee04.jpg            	1	4	1	animal_bee04.jpg     	animals2 	1	bee       	0	bee04       	3	alive    	1	moves	1	natural 	1	n	0	0        	 	0.0	0	135.801519999979	135.901513000019	0.0999930000398308
84872	100	318	stimuli/nonmovArt/bench/nma_bench10.jpg          	1	4	1	nma_bench10.jpg      	nonmovArt	4	bench     	1	bench10     	19	not_alive	0	still	0	artefact	0	n	0	0        	 	0.0	0	135.951520700008	136.051516599953	0.0999958999454975
85022	100	319	stimuli/movNat/waves/mn_waves02.jpg              	1	4	1	mn_waves02.jpg       	movNat   	3	waves     	38	waves02     	381	not_alive	0	moves	1	natural 	1	n	0	0        	 	0.0	0	136.101526299957	136.201522000018	0.0999957000603899
87122	100	320	stimuli/animals/horse/animal_horse07.jpg         	1	5	1	animal_horse07.jpg   	animals  	0	horse     	20	horse07     	206	alive    	1	moves	1	natural 	1	n	0	0        	 	0.0	0	138.201593599981	138.301583399996	0.0999898000154644
87272	100	321	stimuli/plant/tree/plant_tree07.jpg              	1	5	1	plant_tree07.jpg     	plant    	6	tree      	35	tree07      	356	alive    	1	still	0	natural 	1	n	0	0        	 	0.0	0	138.351593800006	138.451586300042	0.0999925000360236
87422	100	322	stimuli/movArt/bus/ma_bus08.jpg                  	1	5	1	ma_bus08.jpg         	movArt   	2	bus       	3	bus08       	37	not_alive	0	moves	1	artefact	0	n	0	0        	 	0.0	0	138.50159739994	138.601591199986	0.0999938000459224
87572	100	323	stimuli/plant/grass/plant_grass10.jpg            	1	5	1	plant_grass10.jpg    	plant    	6	grass     	17	grass10     	179	alive    	1	still	0	natural 	1	n	0	0        	 	0.0	0	138.651601399994	138.751597099937	0.0999956999439746
87722	100	324	stimuli/animals/cat/animal_cat03.jpg             	1	5	1	animal_cat03.jpg     	animals  	0	cat       	6	cat03       	62	alive    	1	moves	1	natural 	1	n	0	0        	 	0.0	0	138.801605399931	138.901596499956	0.0999911000253633
87872	100	325	stimuli/nonmovNat/shell/nmn_shell07.jpg          	1	5	1	nmn_shell07.jpg      	nonmovNat	5	shell     	32	shell07     	326	not_alive	0	still	0	natural 	1	n	0	0        	 	0.0	0	138.951609199983	139.05160180002	0.099992600036785
88022	100	326	stimuli/nonmovArt/bench/nma_bench01.jpg          	1	5	1	nma_bench01.jpg      	nonmovArt	4	bench     	1	bench01     	10	not_alive	0	still	0	artefact	0	n	0	0        	 	0.0	0	139.101612700033	139.20160479995	0.0999920999165624
88172	100	327	stimuli/movArt/bus/ma_bus04.jpg                  	1	5	1	ma_bus04.jpg         	movArt   	2	bus       	3	bus04       	33	not_alive	0	moves	1	artefact	0	n	0	0        	 	0.0	0	139.25161659997	139.351647799951	0.100031199981458
88322	100	328	stimuli/plant2/clover/plant_clover07.jpg         	1	5	1	plant_clover07.jpg   	plant2   	7	clover    	9	clover07    	96	alive    	1	still	0	natural 	1	n	0	0        	 	0.0	0	139.401620700024	139.501614899957	0.0999941999325529
88472	100	329	stimuli/animals2/lemur/animal_lemur04.jpg        	1	5	1	animal_lemur04.jpg   	animals2 	1	lemur     	23	lemur04     	233	alive    	1	moves	1	natural 	1	n	0	0        	 	0.0	0	139.551622499945	139.65161359997	0.0999911000253633
88622	100	330	stimuli/plant2/palmtree/plant_palmtree03.jpg     	1	5	1	plant_palmtree03.jpg 	plant2   	7	palmtree  	27	palmtree03  	272	alive    	1	still	0	natural 	1	n	0	0        	 	0.0	0	139.701623299974	139.801615500008	0.0999922000337392
88772	100	331	stimuli/animals2/pigeon/animal_pigeon02.jpg      	1	5	1	animal_pigeon02.jpg  	animals2 	1	pigeon    	28	pigeon02    	281	alive    	1	moves	1	natural 	1	n	0	0        	 	0.0	0	139.851628200035	139.951620999957	0.0999927999218926
88922	100	332	stimuli/plant/cactus/plant_cactus06.jpg          	1	5	1	plant_cactus06.jpg   	plant    	6	cactus    	4	cactus06    	45	alive    	1	still	0	natural 	1	n	0	0        	 	0.0	0	140.001628799946	140.101654099999	0.100025300052948
89072	100	333	stimuli/animals2/tiger/animal_tiger08.jpg        	1	5	1	animal_tiger08.jpg   	animals2 	1	tiger     	33	tiger08     	337	alive    	1	moves	1	natural 	1	n	0	0        	 	0.0	0	140.151634300011	140.251651900005	0.100017599994317
89222	100	334	stimuli/nonmovNat/rock/nmn_rock09.jpg            	1	5	1	nmn_rock09.jpg       	nonmovNat	5	rock      	30	rock09      	308	not_alive	0	still	0	natural 	1	n	0	1        	f	0.0	0	140.301638399949	140.401633400004	0.0999950000550598
89372	100	335	stimuli/movNat/waterfall/mn_waterfall08.jpg      	1	5	1	mn_waterfall08.jpg   	movNat   	3	waterfall 	37	waterfall08 	377	not_alive	0	moves	1	natural 	1	n	0	0        	 	0.0	0	140.451641899999	140.551635699929	0.0999937999295071
89522	100	336	stimuli/nonmovArt/headphones/nma_headphones10.jpg	1	5	1	nma_headphones10.jpg 	nonmovArt	4	headphones	18	headphones10	189	not_alive	0	still	0	artefact	0	n	0	0        	 	0.0	0	140.601648799959	140.701647000038	0.0999982000794262
89672	100	337	stimuli/movArt/train/ma_train03.jpg              	1	5	1	ma_train03.jpg       	movArt   	2	train     	34	train03     	342	not_alive	0	moves	1	artefact	0	n	0	0        	 	0.0	0	140.751639900031	140.851688900031	0.100049000000581
89822	100	338	stimuli/movArt/helicopter/ma_helicopter06.jpg    	1	5	1	ma_helicopter06.jpg  	movArt   	2	helicopter	19	helicopter06	195	not_alive	0	moves	1	artefact	0	n	0	0        	 	0.0	0	140.901666500024	141.001675499952	0.100008999928832
89972	100	339	stimuli/plant2/lemontree/plant_lemontree01.jpg   	1	5	1	plant_lemontree01.jpg	plant2   	7	lemontree 	22	lemontree01 	220	alive    	1	still	0	natural 	1	n	0	0        	 	0.0	0	141.05168299994	141.151688999962	0.100006000022404
90122	100	340	stimuli/plant2/lemontree/plant_lemontree06.jpg   	1	5	1	plant_lemontree06.jpg	plant2   	7	lemontree 	22	lemontree06 	225	alive    	1	still	0	natural 	1	n	0	0        	 	0.0	0	141.201670099981	141.301684799953	0.100014699972235
90272	100	341	stimuli/nonmovArt/headphones/nma_headphones02.jpg	1	5	1	nma_headphones02.jpg 	nonmovArt	4	headphones	18	headphones02	181	not_alive	0	still	0	artefact	0	n	0	0        	 	0.0	0	141.351678399951	141.451692500035	0.100014100084081
90422	100	342	stimuli/animals/cat/animal_cat02.jpg             	1	5	1	animal_cat02.jpg     	animals  	0	cat       	6	cat02       	61	alive    	1	moves	1	natural 	1	n	0	0        	 	0.0	0	141.501681900001	141.601704400033	0.100022500031628
90572	100	343	stimuli/movArt/boat/ma_boat09.jpg                	1	5	1	ma_boat09.jpg        	movArt   	2	boat      	2	boat09      	28	not_alive	0	moves	1	artefact	0	n	0	0        	 	0.0	0	141.651714300038	141.751697500004	0.0999831999652088
90722	100	344	stimuli/movArt/car/ma_car09.jpg                  	1	5	1	ma_car09.jpg         	movArt   	2	car       	5	car09       	58	not_alive	0	moves	1	artefact	0	n	0	0        	 	0.0	0	141.801712399931	141.90168400004	0.0999716001097113
90872	100	345	stimuli/movNat/river/mn_river01.jpg              	1	5	1	mn_river01.jpg       	movNat   	3	river     	29	river01     	290	not_alive	0	moves	1	natural 	1	n	1	0        	 	0.0	0	141.95169659995	142.051690499997	0.0999939000466838
91022	100	346	stimuli/plant/flower/plant_flower02.jpg          	1	5	1	plant_flower02.jpg   	plant    	6	flower    	16	flower02    	161	alive    	1	still	0	natural 	1	n	0	0        	 	0.0	0	142.101692099939	142.2016879	0.0999958000611514
91172	100	347	stimuli/animals/dog/animal_dog05.jpg             	1	5	1	animal_dog05.jpg     	animals  	0	dog       	11	dog05       	114	alive    	1	moves	1	natural 	1	n	0	1        	f	0.292210199986584	1	142.251699900022	142.351703200024	0.100003300001845
91322	100	348	stimuli/nonmovNat/shell/nmn_shell03.jpg          	1	5	1	nmn_shell03.jpg      	nonmovNat	5	shell     	32	shell03     	322	not_alive	0	still	0	natural 	1	n	0	0        	 	0.0	0	142.401701299939	142.501697300002	0.0999960000626743
91472	100	349	stimuli/plant2/fern/plant_fern03.jpg             	1	5	1	plant_fern03.jpg     	plant2   	7	fern      	14	fern03      	142	alive    	1	still	0	natural 	1	n	0	0        	 	0.0	0	142.551724600024	142.651695700013	0.0999710999894887
91622	100	350	stimuli/nonmovArt/mug/nma_mug06.jpg              	1	5	1	nma_mug06.jpg        	nonmovArt	4	mug       	26	mug06       	265	not_alive	0	still	0	artefact	0	n	0	0        	 	0.0	0	142.701726199943	142.801715799957	0.0999896000139415
91772	100	351	stimuli/plant/cactus/plant_cactus06.jpg          	1	5	1	plant_cactus06.jpg   	plant    	6	cactus    	4	cactus06    	45	alive    	1	still	0	natural 	1	n	0	0        	 	0.0	0	142.851711099967	142.951707900036	0.0999968000687659
91922	100	352	stimuli/movNat/hotspring/mn_hotspring07.jpg      	1	5	1	mn_hotspring07.jpg   	movNat   	3	hotspring 	21	hotspring07 	216	not_alive	0	moves	1	natural 	1	n	0	0        	 	0.0	0	143.001716900035	143.101707899943	0.0999909999081865
92072	100	353	stimuli/movArt/train/ma_train07.jpg              	1	5	1	ma_train07.jpg       	movArt   	2	train     	34	train07     	346	not_alive	0	moves	1	artefact	0	n	0	0        	 	0.0	0	143.151721199974	143.251711499994	0.0999903000192717
92222	100	354	stimuli/nonmovArt/clothespeg/nma_clothespeg09.jpg	1	5	1	nma_clothespeg09.jpg 	nonmovArt	4	clothespeg	8	clothespeg09	88	not_alive	0	still	0	artefact	0	n	0	0        	 	0.0	0	143.301723800017	143.40171799995	0.0999941999325529
92372	100	355	stimuli/plant2/palmtree/plant_palmtree05.jpg     	1	5	1	plant_palmtree05.jpg 	plant2   	7	palmtree  	27	palmtree05  	274	alive    	1	still	0	natural 	1	n	0	0        	 	0.0	0	143.451740999939	143.551721600001	0.0999806000618264
92522	100	356	stimuli/animals2/bee/animal_bee05.jpg            	1	5	1	animal_bee05.jpg     	animals2 	1	bee       	0	bee05       	4	alive    	1	moves	1	natural 	1	n	0	0        	 	0.0	0	143.601731300005	143.701722800033	0.0999915000284091
92672	100	357	stimuli/animals2/pigeon/animal_pigeon08.jpg      	1	5	1	animal_pigeon08.jpg  	animals2 	1	pigeon    	28	pigeon08    	287	alive    	1	moves	1	natural 	1	n	0	0        	 	0.0	0	143.751736899954	143.85172799998	0.0999911000253633
92822	100	358	stimuli/movNat/fire/mn_fire08.jpg                	1	5	1	mn_fire08.jpg        	movNat   	3	fire      	15	fire08      	157	not_alive	0	moves	1	natural 	1	n	0	0        	 	0.0	0	143.901740100002	144.001732100034	0.0999920000322163
92972	100	359	stimuli/nonmovNat/crystal/nmn_crystal07.jpg      	1	5	1	nmn_crystal07.jpg    	nonmovNat	5	crystal   	10	crystal07   	106	not_alive	0	still	0	natural 	1	n	0	0        	 	0.0	0	144.051742599928	144.151736699976	0.0999941000482068
93122	100	360	stimuli/plant2/palmtree/plant_palmtree06.jpg     	1	5	1	plant_palmtree06.jpg 	plant2   	7	palmtree  	27	palmtree06  	275	alive    	1	still	0	natural 	1	n	0	0        	 	0.0	0	144.201749900007	144.30174289993	0.0999929999234155
93272	100	361	stimuli/movArt/helicopter/ma_helicopter08.jpg    	1	5	1	ma_helicopter08.jpg  	movArt   	2	helicopter	19	helicopter08	197	not_alive	0	moves	1	artefact	0	n	0	0        	 	0.0	0	144.351752499933	144.45174379996	0.0999913000268862
93422	100	362	stimuli/plant/tree/plant_tree04.jpg              	1	5	1	plant_tree04.jpg     	plant    	6	tree      	35	tree04      	353	alive    	1	still	0	natural 	1	n	0	0        	 	0.0	0	144.501755299978	144.601744099986	0.0999888000078499
93572	100	363	stimuli/plant/grass/plant_grass02.jpg            	1	5	1	plant_grass02.jpg    	plant    	6	grass     	17	grass02     	171	alive    	1	still	0	natural 	1	n	0	0        	 	0.0	0	144.651778799947	144.751751299948	0.099972500000149
93722	100	364	stimuli/animals/horse/animal_horse01.jpg         	1	5	1	animal_horse01.jpg   	animals  	0	horse     	20	horse01     	200	alive    	1	moves	1	natural 	1	n	0	0        	 	0.0	0	144.801759599941	144.901758900029	0.0999993000878021
93872	100	365	stimuli/animals/dolphin/animal_dolphin07.jpg     	1	5	1	animal_dolphin07.jpg 	animals  	0	dolphin   	12	dolphin07   	126	alive    	1	moves	1	natural 	1	n	0	0        	 	0.0	0	144.951759499963	145.051753100008	0.0999936000443995
94022	100	366	stimuli/nonmovNat/shell/nmn_shell09.jpg          	1	5	1	nmn_shell09.jpg      	nonmovNat	5	shell     	32	shell09     	328	not_alive	0	still	0	natural 	1	n	0	0        	 	0.0	0	145.101765400032	145.201759999967	0.0999945999355987
94172	100	367	stimuli/animals/eagle/animal_eagle09.jpg         	1	5	1	animal_eagle09.jpg   	animals  	0	eagle     	13	eagle09     	138	alive    	1	moves	1	natural 	1	n	0	0        	 	0.0	0	145.251769299968	145.351762100006	0.0999928000383079
94322	100	368	stimuli/movNat/hotspring/mn_hotspring08.jpg      	1	5	1	mn_hotspring08.jpg   	movNat   	3	hotspring 	21	hotspring08 	217	not_alive	0	moves	1	natural 	1	n	0	0        	 	0.0	0	145.401772500016	145.501766399946	0.0999938999302685
94472	100	369	stimuli/plant2/lemontree/plant_lemontree04.jpg   	1	5	1	plant_lemontree04.jpg	plant2   	7	lemontree 	22	lemontree04 	223	alive    	1	still	0	natural 	1	n	0	0        	 	0.0	0	145.551775899949	145.651798099978	0.100022200029343
94622	100	370	stimuli/plant/grass/plant_grass09.jpg            	1	5	1	plant_grass09.jpg    	plant    	6	grass     	17	grass09     	178	alive    	1	still	0	natural 	1	n	0	0        	 	0.0	0	145.701779399998	145.801772800041	0.0999934000428766
94772	100	371	stimuli/movArt/train/ma_train09.jpg              	1	5	1	ma_train09.jpg       	movArt   	2	train     	34	train09     	348	not_alive	0	moves	1	artefact	0	n	1	0        	 	0.0	0	145.851785699953	145.951779399998	0.099993700045161
94922	100	372	stimuli/movNat/waterfall/mn_waterfall10.jpg      	1	5	1	mn_waterfall10.jpg   	movNat   	3	waterfall 	37	waterfall10 	379	not_alive	0	moves	1	natural 	1	n	0	0        	 	0.0	0	146.001787899993	146.101784099941	0.0999961999477819
95072	100	373	stimuli/movNat/fire/mn_fire10.jpg                	1	5	1	mn_fire10.jpg        	movNat   	3	fire      	15	fire10      	159	not_alive	0	moves	1	natural 	1	n	0	1        	f	0.292176900082268	1	146.151794599951	146.251800499973	0.100005900021642
95222	100	374	stimuli/plant/cactus/plant_cactus09.jpg          	1	5	1	plant_cactus09.jpg   	plant    	6	cactus    	4	cactus09    	48	alive    	1	still	0	natural 	1	n	0	0        	 	0.0	0	146.301814100007	146.401815899997	0.100001799990423
95372	100	375	stimuli/nonmovNat/rock/nmn_rock02.jpg            	1	5	1	nmn_rock02.jpg       	nonmovNat	5	rock      	30	rock02      	301	not_alive	0	still	0	natural 	1	n	0	0        	 	0.0	0	146.451799000031	146.551796399988	0.0999973999569192
95522	100	376	stimuli/animals/cat/animal_cat08.jpg             	1	5	1	animal_cat08.jpg     	animals  	0	cat       	6	cat08       	67	alive    	1	moves	1	natural 	1	n	0	0        	 	0.0	0	146.60182109999	146.701799400034	0.0999783000443131
95672	100	377	stimuli/nonmovArt/mug/nma_mug10.jpg              	1	5	1	nma_mug10.jpg        	nonmovArt	4	mug       	26	mug10       	269	not_alive	0	still	0	artefact	0	n	0	0        	 	0.0	0	146.75181009993	146.85180189996	0.0999918000306934
95822	100	378	stimuli/animals2/bee/animal_bee06.jpg            	1	5	1	animal_bee06.jpg     	animals2 	1	bee       	0	bee06       	5	alive    	1	moves	1	natural 	1	n	0	0        	 	0.0	0	146.901813199976	147.001811699942	0.0999984999652952
95972	100	379	stimuli/movNat/river/mn_river08.jpg              	1	5	1	mn_river08.jpg       	movNat   	3	river     	29	river08     	297	not_alive	0	moves	1	natural 	1	n	0	0        	 	0.0	0	147.051816800027	147.151823899942	0.100007099914365
96122	100	380	stimuli/nonmovArt/headphones/nma_headphones07.jpg	1	5	1	nma_headphones07.jpg 	nonmovArt	4	headphones	18	headphones07	186	not_alive	0	still	0	artefact	0	n	0	0        	 	0.0	0	147.20182149997	147.301812799997	0.0999913000268862
96272	100	381	stimuli/nonmovArt/lock/nma_lock03.jpg            	1	5	1	nma_lock03.jpg       	nonmovArt	4	lock      	24	lock03      	242	not_alive	0	still	0	artefact	0	n	0	0        	 	0.0	0	147.351823500008	147.451817699941	0.0999941999325529
96422	100	382	stimuli/movArt/bus/ma_bus07.jpg                  	1	5	1	ma_bus07.jpg         	movArt   	2	bus       	3	bus07       	36	not_alive	0	moves	1	artefact	0	n	0	0        	 	0.0	0	147.501870100037	147.601825700025	0.0999555999878794
96572	100	383	stimuli/animals/eagle/animal_eagle08.jpg         	1	5	1	animal_eagle08.jpg   	animals  	0	eagle     	13	eagle08     	137	alive    	1	moves	1	natural 	1	n	0	0        	 	0.0	0	147.651832400006	147.751827699947	0.0999952999409288
96722	100	384	stimuli/plant2/palmtree/plant_palmtree07.jpg     	1	5	1	plant_palmtree07.jpg 	plant2   	7	palmtree  	27	palmtree07  	276	alive    	1	still	0	natural 	1	n	0	0        	 	0.0	0	147.801835399936	147.901830499992	0.0999951000558212
96872	100	385	stimuli/animals/dolphin/animal_dolphin02.jpg     	1	5	1	animal_dolphin02.jpg 	animals  	0	dolphin   	12	dolphin02   	121	alive    	1	moves	1	natural 	1	n	1	0        	 	0.0	0	147.951840099995	148.051836599945	0.0999964999500662
97022	100	386	stimuli/plant/tree/plant_tree05.jpg              	1	5	1	plant_tree05.jpg     	plant    	6	tree      	35	tree05      	354	alive    	1	still	0	natural 	1	n	0	0        	 	0.0	0	148.101860799943	148.201837699977	0.0999769000336528
97172	100	387	stimuli/nonmovNat/sand/nmn_sand04.jpg            	1	5	1	nmn_sand04.jpg       	nonmovNat	5	sand      	31	sand04      	313	not_alive	0	still	0	natural 	1	n	0	1        	f	0.292175999958999	1	148.25187649997	148.351841900032	0.0999654000625014
97322	100	388	stimuli/plant2/fern/plant_fern09.jpg             	1	5	1	plant_fern09.jpg     	plant2   	7	fern      	14	fern09      	148	alive    	1	still	0	natural 	1	n	0	0        	 	0.0	0	148.401852699928	148.501864099991	0.100011400063522
97472	100	389	stimuli/animals/cat/animal_cat10.jpg             	1	5	1	animal_cat10.jpg     	animals  	0	cat       	6	cat10       	69	alive    	1	moves	1	natural 	1	n	0	0        	 	0.0	0	148.551892200019	148.651901199948	0.100008999928832
97622	100	390	stimuli/animals/dog/animal_dog04.jpg             	1	5	1	animal_dog04.jpg     	animals  	0	dog       	11	dog04       	113	alive    	1	moves	1	natural 	1	n	0	0        	 	0.0	0	148.701872000005	148.801882899948	0.1000108999433
97772	100	391	stimuli/nonmovNat/rock/nmn_rock07.jpg            	1	5	1	nmn_rock07.jpg       	nonmovNat	5	rock      	30	rock07      	306	not_alive	0	still	0	natural 	1	n	0	0        	 	0.0	0	148.851887100027	148.951869399985	0.0999822999583557
97922	100	392	stimuli/movNat/fire/mn_fire05.jpg                	1	5	1	mn_fire05.jpg        	movNat   	3	fire      	15	fire05      	154	not_alive	0	moves	1	natural 	1	n	0	0        	 	0.0	0	149.001903399942	149.10188880004	0.099985400098376
98072	100	393	stimuli/movArt/boat/ma_boat07.jpg                	1	5	1	ma_boat07.jpg        	movArt   	2	boat      	2	boat07      	26	not_alive	0	moves	1	artefact	0	n	0	0        	 	0.0	0	149.151886599953	149.251892799977	0.100006200023927
98222	100	394	stimuli/plant/grass/plant_grass06.jpg            	1	5	1	plant_grass06.jpg    	plant    	6	grass     	17	grass06     	175	alive    	1	still	0	natural 	1	n	0	0        	 	0.0	0	149.301905	149.401882300037	0.0999773000366986
98372	100	395	stimuli/movArt/train/ma_train10.jpg              	1	5	1	ma_train10.jpg       	movArt   	2	train     	34	train10     	349	not_alive	0	moves	1	artefact	0	n	0	0        	 	0.0	0	149.451891000033	149.551900499966	0.100009499932639
98522	100	396	stimuli/animals2/lemur/animal_lemur09.jpg        	1	5	1	animal_lemur09.jpg   	animals2 	1	lemur     	23	lemur09     	238	alive    	1	moves	1	natural 	1	n	0	0        	 	0.0	0	149.601899800007	149.701909899944	0.100010099937208
98672	100	397	stimuli/plant2/clover/plant_clover02.jpg         	1	5	1	plant_clover02.jpg   	plant2   	7	clover    	9	clover02    	91	alive    	1	still	0	natural 	1	n	0	0        	 	0.0	0	149.751903099939	149.851908599958	0.100005500018597
98822	100	398	stimuli/animals/cat/animal_cat01.jpg             	1	5	1	animal_cat01.jpg     	animals  	0	cat       	6	cat01       	60	alive    	1	moves	1	natural 	1	n	0	0        	 	0.0	0	149.901922299992	150.001904099947	0.0999817999545485
98972	100	399	stimuli/plant/flower/plant_flower09.jpg          	1	5	1	plant_flower09.jpg   	plant    	6	flower    	16	flower09    	168	alive    	1	still	0	natural 	1	n	0	0        	 	0.0	0	150.051913899952	150.15190930001	0.0999954000581056
101473	100	400	stimuli/animals2/pigeon/animal_pigeon03.jpg      	1	6	1	animal_pigeon03.jpg  	animals2 	1	pigeon    	28	pigeon03    	282	alive    	1	moves	1	natural 	1	n	0	0        	 	0.0	0	152.551968300017	152.651959699928	0.0999913999112323
101623	100	401	stimuli/nonmovArt/mug/nma_mug09.jpg              	1	6	1	nma_mug09.jpg        	nonmovArt	4	mug       	26	mug09       	268	not_alive	0	still	0	artefact	0	n	0	0        	 	0.0	0	152.701966800028	152.801989699947	0.100022899918258
101773	100	402	stimuli/plant/vine/plant_vine02.jpg              	1	6	1	plant_vine02.jpg     	plant    	6	vine      	36	vine02      	361	alive    	1	still	0	natural 	1	n	0	0        	 	0.0	0	152.851972099976	152.9519783	0.100006200023927
101923	100	403	stimuli/nonmovArt/headphones/nma_headphones06.jpg	1	6	1	nma_headphones06.jpg 	nonmovArt	4	headphones	18	headphones06	185	not_alive	0	still	0	artefact	0	n	0	0        	 	0.0	0	153.001975700026	153.101985899964	0.100010199937969
102073	100	404	stimuli/plant2/lemontree/plant_lemontree10.jpg   	1	6	1	plant_lemontree10.jpg	plant2   	7	lemontree 	22	lemontree10 	229	alive    	1	still	0	natural 	1	n	0	0        	 	0.0	0	153.151979499962	153.251971899997	0.0999924000352621
102223	100	405	stimuli/animals2/tiger/animal_tiger10.jpg        	1	6	1	animal_tiger10.jpg   	animals2 	1	tiger     	33	tiger10     	339	alive    	1	moves	1	natural 	1	n	0	0        	 	0.0	0	153.302020999952	153.401975499932	0.0999544999795034
102373	100	406	stimuli/nonmovArt/clothespeg/nma_clothespeg03.jpg	1	6	1	nma_clothespeg03.jpg 	nonmovArt	4	clothespeg	8	clothespeg03	82	not_alive	0	still	0	artefact	0	n	0	0        	 	0.0	0	153.45198709995	153.551991599961	0.100004500010982
102523	100	407	stimuli/nonmovNat/cliff/nmn_cliff07.jpg          	1	6	1	nmn_cliff07.jpg      	nonmovNat	5	cliff     	7	cliff07     	76	not_alive	0	still	0	natural 	1	n	0	0        	 	0.0	0	153.601991600008	153.701983400038	0.0999918000306934
102673	100	408	stimuli/nonmovNat/cliff/nmn_cliff05.jpg          	1	6	1	nmn_cliff05.jpg      	nonmovNat	5	cliff     	7	cliff05     	74	not_alive	0	still	0	natural 	1	n	0	0        	 	0.0	0	153.751995799947	153.85198929999	0.099993500043638
102823	100	409	stimuli/plant2/clover/plant_clover08.jpg         	1	6	1	plant_clover08.jpg   	plant2   	7	clover    	9	clover08    	97	alive    	1	still	0	natural 	1	n	0	0        	 	0.0	0	153.902014699997	154.002009599935	0.099994899937883
102973	100	410	stimuli/animals2/lemur/animal_lemur02.jpg        	1	6	1	animal_lemur02.jpg   	animals2 	1	lemur     	23	lemur02     	231	alive    	1	moves	1	natural 	1	n	0	0        	 	0.0	0	154.05203120003	154.152011799975	0.0999805999454111
103123	100	411	stimuli/plant2/fern/plant_fern08.jpg             	1	6	1	plant_fern08.jpg     	plant2   	7	fern      	14	fern08      	147	alive    	1	still	0	natural 	1	n	0	0        	 	0.0	0	154.202007499989	154.302018899936	0.100011399947107
103273	100	412	stimuli/movNat/waves/mn_waves02.jpg              	1	6	1	mn_waves02.jpg       	movNat   	3	waves     	38	waves02     	381	not_alive	0	moves	1	natural 	1	n	1	0        	 	0.0	0	154.352024300024	154.452004799969	0.0999804999446496
103423	100	413	stimuli/plant2/clover/plant_clover08.jpg         	1	6	1	plant_clover08.jpg   	plant2   	7	clover    	9	clover08    	97	alive    	1	still	0	natural 	1	n	0	0        	 	0.0	0	154.502016199986	154.602007500012	0.0999913000268862
103573	100	414	stimuli/nonmovArt/clothespeg/nma_clothespeg08.jpg	1	6	1	nma_clothespeg08.jpg 	nonmovArt	4	clothespeg	8	clothespeg08	87	not_alive	0	still	0	artefact	0	n	0	1        	f	0.292184399906546	1	154.652039999957	154.752012599958	0.0999726000009105
