onset	duration	eventnumber	stimulus_file	blockno	trialno	is_faststream	stim	stim_category	category_number	exemplar	exemplar_number	image_name	image_number	aliveness	aliveness_bin	movement	movement_bin	naturalness	naturalness_bin	response_hand_alive	istarget	response	keypressed	rt	correct	time_stimon	time_stimoff	stimdur
64219	100	0	stimuli/animals/dog/animal_dog01.jpg             	1	1	1	animal_dog01.jpg     	animals  	0	dog       	11	dog01       	110	alive    	1	moves	1	natural 	1	n	0	0        	 	0.0	0	160.419349599979	160.519343599968	0.0999939999892376
64369	100	1	stimuli/animals/eagle/animal_eagle03.jpg         	1	1	1	animal_eagle03.jpg   	animals  	0	eagle     	13	eagle03     	132	alive    	1	moves	1	natural 	1	n	0	0        	 	0.0	0	160.569364499999	160.669379199971	0.100014699972235
64519	100	2	stimuli/movArt/helicopter/ma_helicopter04.jpg    	1	1	1	ma_helicopter04.jpg  	movArt   	2	helicopter	19	helicopter04	193	not_alive	0	moves	1	artefact	0	n	0	1        	f	0.0	0	160.719355699955	160.819374999963	0.100019300007261
64669	100	3	stimuli/nonmovArt/bench/nma_bench08.jpg          	1	1	1	nma_bench08.jpg      	nonmovArt	4	bench     	1	bench08     	17	not_alive	0	still	0	artefact	0	n	0	0        	 	0.0	0	160.869357899996	160.969355199952	0.0999972999561578
64819	100	4	stimuli/animals2/whale/animal_whale05.jpg        	1	1	1	animal_whale05.jpg   	animals2 	1	whale     	39	whale05     	394	alive    	1	moves	1	natural 	1	n	0	0        	 	0.0	0	161.01936409995	161.119349399989	0.0999853000394069
64969	100	5	stimuli/animals/cat/animal_cat03.jpg             	1	1	1	animal_cat03.jpg     	animals  	0	cat       	6	cat03       	62	alive    	1	moves	1	natural 	1	n	0	0        	 	0.0	0	161.169371899974	161.269378199999	0.100006300024688
65119	100	6	stimuli/plant2/clover/plant_clover02.jpg         	1	1	1	plant_clover02.jpg   	plant2   	7	clover    	9	clover02    	91	alive    	1	still	0	natural 	1	n	0	1        	f	0.0	0	161.319368499971	161.41938539996	0.100016899988987
65269	100	7	stimuli/plant2/clover/plant_clover01.jpg         	1	1	1	plant_clover01.jpg   	plant2   	7	clover    	9	clover01    	90	alive    	1	still	0	natural 	1	n	0	0        	 	0.0	0	161.469642099983	161.569383899972	0.0997417999897152
65419	100	8	stimuli/animals2/tiger/animal_tiger09.jpg        	1	1	1	animal_tiger09.jpg   	animals2 	1	tiger     	33	tiger09     	338	alive    	1	moves	1	natural 	1	n	0	0        	 	0.0	0	161.619380499993	161.719371299958	0.0999907999648713
65569	100	9	stimuli/movNat/waves/mn_waves08.jpg              	1	1	1	mn_waves08.jpg       	movNat   	3	waves     	38	waves08     	387	not_alive	0	moves	1	natural 	1	n	0	0        	 	0.0	0	161.769393299997	161.869376699964	0.0999833999667317
65719	100	10	stimuli/plant/vine/plant_vine08.jpg              	1	1	1	plant_vine08.jpg     	plant    	6	vine      	36	vine08      	367	alive    	1	still	0	natural 	1	n	0	0        	 	0.0	0	161.919414999953	162.019381199963	0.0999662000103854
65869	100	11	stimuli/plant/grass/plant_grass06.jpg            	1	1	1	plant_grass06.jpg    	plant    	6	grass     	17	grass06     	175	alive    	1	still	0	natural 	1	n	0	0        	 	0.0	0	162.06938359997	162.169398700004	0.100015100033488
66019	100	12	stimuli/plant2/moss/plant_moss02.jpg             	1	1	1	plant_moss02.jpg     	plant2   	7	moss      	25	moss02      	251	alive    	1	still	0	natural 	1	n	0	0        	 	0.0	0	162.219388999976	162.319386699994	0.0999977000174113
66169	100	13	stimuli/plant2/fern/plant_fern03.jpg             	1	1	1	plant_fern03.jpg     	plant2   	7	fern      	14	fern03      	142	alive    	1	still	0	natural 	1	n	0	0        	 	0.0	0	162.369413199951	162.469385799952	0.0999726000009105
66319	100	14	stimuli/movNat/river/mn_river06.jpg              	1	1	1	mn_river06.jpg       	movNat   	3	river     	29	river06     	295	not_alive	0	moves	1	natural 	1	n	0	0        	 	0.0	0	162.519415399991	162.619390599953	0.0999751999625005
66469	100	15	stimuli/animals/dog/animal_dog04.jpg             	1	1	1	animal_dog04.jpg     	animals  	0	dog       	11	dog04       	113	alive    	1	moves	1	natural 	1	n	0	0        	 	0.0	0	162.669434799987	162.769392899994	0.0999581000069156
66619	100	16	stimuli/movArt/bus/ma_bus04.jpg                  	1	1	1	ma_bus04.jpg         	movArt   	2	bus       	3	bus04       	33	not_alive	0	moves	1	artefact	0	n	0	0        	 	0.0	0	162.819404899958	162.919397799997	0.0999929000390694
66769	100	17	stimuli/nonmovNat/sand/nmn_sand04.jpg            	1	1	1	nmn_sand04.jpg       	nonmovNat	5	sand      	31	sand04      	313	not_alive	0	still	0	natural 	1	n	0	0        	 	0.0	0	162.969408199948	163.069403499947	0.0999952999991365
66919	100	18	stimuli/nonmovNat/crystal/nmn_crystal05.jpg      	1	1	1	nmn_crystal05.jpg    	nonmovNat	5	crystal   	10	crystal05   	104	not_alive	0	still	0	natural 	1	n	0	0        	 	0.0	0	163.119416499976	163.219406699995	0.0999902000185102
67069	100	19	stimuli/movArt/bus/ma_bus02.jpg                  	1	1	1	ma_bus02.jpg         	movArt   	2	bus       	3	bus02       	31	not_alive	0	moves	1	artefact	0	n	0	0        	 	0.0	0	163.2694471	163.369410999992	0.099963899992872
67219	100	20	stimuli/plant/cactus/plant_cactus06.jpg          	1	1	1	plant_cactus06.jpg   	plant    	6	cactus    	4	cactus06    	45	alive    	1	still	0	natural 	1	n	0	0        	 	0.0	0	163.419432299968	163.519414199982	0.0999819000135176
67369	100	21	stimuli/movNat/waterfall/mn_waterfall09.jpg      	1	1	1	mn_waterfall09.jpg   	movNat   	3	waterfall 	37	waterfall09 	378	not_alive	0	moves	1	natural 	1	n	0	0        	 	0.0	0	163.569426000002	163.669419199985	0.099993199983146
67519	100	22	stimuli/animals2/pigeon/animal_pigeon06.jpg      	1	1	1	animal_pigeon06.jpg  	animals2 	1	pigeon    	28	pigeon06    	285	alive    	1	moves	1	natural 	1	n	0	0        	 	0.0	0	163.719428599987	163.819421999971	0.0999933999846689
67669	100	23	stimuli/animals2/whale/animal_whale09.jpg        	1	1	1	animal_whale09.jpg   	animals2 	1	whale     	39	whale09     	398	alive    	1	moves	1	natural 	1	n	0	0        	 	0.0	0	163.869431999978	163.969425399962	0.0999933999846689
67819	100	24	stimuli/movArt/boat/ma_boat03.jpg                	1	1	1	ma_boat03.jpg        	movArt   	2	boat      	2	boat03      	22	not_alive	0	moves	1	artefact	0	n	0	0        	 	0.0	0	164.019439800002	164.119449099991	0.100009299989324
67969	100	25	stimuli/movArt/bus/ma_bus04.jpg                  	1	1	1	ma_bus04.jpg         	movArt   	2	bus       	3	bus04       	33	not_alive	0	moves	1	artefact	0	n	0	0        	 	0.0	0	164.169440899976	164.269436799979	0.0999959000037052
68119	100	26	stimuli/plant/vine/plant_vine01.jpg              	1	1	1	plant_vine01.jpg     	plant    	6	vine      	36	vine01      	360	alive    	1	still	0	natural 	1	n	0	0        	 	0.0	0	164.319465499953	164.419438599958	0.0999731000047177
68269	100	27	stimuli/animals2/bee/animal_bee02.jpg            	1	1	1	animal_bee02.jpg     	animals2 	1	bee       	0	bee02       	1	alive    	1	moves	1	natural 	1	n	0	0        	 	0.0	0	164.469448199961	164.569441899948	0.0999936999869533
68419	100	28	stimuli/animals/eagle/animal_eagle07.jpg         	1	1	1	animal_eagle07.jpg   	animals  	0	eagle     	13	eagle07     	136	alive    	1	moves	1	natural 	1	n	0	0        	 	0.0	0	164.619453699968	164.719444699993	0.0999910000246018
68569	100	29	stimuli/movArt/car/ma_car07.jpg                  	1	1	1	ma_car07.jpg         	movArt   	2	car       	5	car07       	56	not_alive	0	moves	1	artefact	0	n	0	0        	 	0.0	0	164.769455799949	164.869465199998	0.100009400048293
68719	100	30	stimuli/animals2/lemur/animal_lemur08.jpg        	1	1	1	animal_lemur08.jpg   	animals2 	1	lemur     	23	lemur08     	237	alive    	1	moves	1	natural 	1	n	0	0        	 	0.0	0	164.91946049995	165.019454299996	0.0999938000459224
68869	100	31	stimuli/nonmovNat/sand/nmn_sand06.jpg            	1	1	1	nmn_sand06.jpg       	nonmovNat	5	sand      	31	sand06      	315	not_alive	0	still	0	natural 	1	n	0	0        	 	0.0	0	165.069462299987	165.169457399985	0.0999950999976136
69019	100	32	stimuli/movArt/car/ma_car01.jpg                  	1	1	1	ma_car01.jpg         	movArt   	2	car       	5	car01       	50	not_alive	0	moves	1	artefact	0	n	0	0        	 	0.0	0	165.219470499957	165.319462899992	0.0999924000352621
69169	100	33	stimuli/plant2/lemontree/plant_lemontree03.jpg   	1	1	1	plant_lemontree03.jpg	plant2   	7	lemontree 	22	lemontree03 	222	alive    	1	still	0	natural 	1	n	1	0        	 	0.0	0	165.369472299994	165.469464699971	0.0999923999770544
69319	100	34	stimuli/plant2/lemontree/plant_lemontree06.jpg   	1	1	1	plant_lemontree06.jpg	plant2   	7	lemontree 	22	lemontree06 	225	alive    	1	still	0	natural 	1	n	0	0        	 	0.0	0	165.519494799955	165.619509399985	0.100014600029681
69469	100	35	stimuli/plant2/clover/plant_clover01.jpg         	1	1	1	plant_clover01.jpg   	plant2   	7	clover    	9	clover01    	90	alive    	1	still	0	natural 	1	n	0	0        	 	0.0	0	165.669481599994	165.769472699962	0.0999910999671556
69619	100	36	stimuli/nonmovNat/sand/nmn_sand06.jpg            	1	1	1	nmn_sand06.jpg       	nonmovNat	5	sand      	31	sand06      	315	not_alive	0	still	0	natural 	1	n	0	0        	 	0.0	0	165.819483199972	165.919478299969	0.0999950999976136
69769	100	37	stimuli/nonmovArt/mug/nma_mug09.jpg              	1	1	1	nma_mug09.jpg        	nonmovArt	4	mug       	26	mug09       	268	not_alive	0	still	0	artefact	0	n	0	0        	 	0.0	0	165.969487699971	166.069481899962	0.0999941999907605
69919	100	38	stimuli/movNat/hotspring/mn_hotspring08.jpg      	1	1	1	mn_hotspring08.jpg   	movNat   	3	hotspring 	21	hotspring08 	217	not_alive	0	moves	1	natural 	1	n	0	0        	 	0.0	0	166.119489599951	166.219477499952	0.0999879000009969
70069	100	39	stimuli/movArt/helicopter/ma_helicopter02.jpg    	1	1	1	ma_helicopter02.jpg  	movArt   	2	helicopter	19	helicopter02	191	not_alive	0	moves	1	artefact	0	n	0	0        	 	0.0	0	166.26950439997	166.369522199966	0.10001779999584
70219	100	40	stimuli/plant/cactus/plant_cactus05.jpg          	1	1	1	plant_cactus05.jpg   	plant    	6	cactus    	4	cactus05    	44	alive    	1	still	0	natural 	1	n	0	0        	 	0.0	0	166.4195052	166.519498799986	0.0999935999861918
70369	100	41	stimuli/animals/horse/animal_horse09.jpg         	1	1	1	animal_horse09.jpg   	animals  	0	horse     	20	horse09     	208	alive    	1	moves	1	natural 	1	n	0	0        	 	0.0	0	166.569510200003	166.669504399993	0.0999941999907605
70519	100	42	stimuli/nonmovArt/lock/nma_lock04.jpg            	1	1	1	nma_lock04.jpg       	nonmovArt	4	lock      	24	lock04      	243	not_alive	0	still	0	artefact	0	n	0	0        	 	0.0	0	166.719513299991	166.819505999971	0.0999926999793388
70669	100	43	stimuli/nonmovNat/shell/nmn_shell02.jpg          	1	1	1	nmn_shell02.jpg      	nonmovNat	5	shell     	32	shell02     	321	not_alive	0	still	0	natural 	1	n	0	1        	f	0.0	0	166.869518699998	166.969532499963	0.100013799965382
70819	100	44	stimuli/plant2/fern/plant_fern01.jpg             	1	1	1	plant_fern01.jpg     	plant2   	7	fern      	14	fern01      	140	alive    	1	still	0	natural 	1	n	0	0        	 	0.0	0	167.019519599969	167.119525499991	0.100005900021642
70969	100	45	stimuli/nonmovNat/rock/nmn_rock06.jpg            	1	1	1	nmn_rock06.jpg       	nonmovNat	5	rock      	30	rock06      	305	not_alive	0	still	0	natural 	1	n	0	0        	 	0.0	0	167.169517799979	167.26951459999	0.0999968000105582
71119	100	46	stimuli/plant/vine/plant_vine06.jpg              	1	1	1	plant_vine06.jpg     	plant    	6	vine      	36	vine06      	365	alive    	1	still	0	natural 	1	n	0	0        	 	0.0	0	167.319523299986	167.419516499969	0.099993199983146
71269	100	47	stimuli/plant2/moss/plant_moss06.jpg             	1	1	1	plant_moss06.jpg     	plant2   	7	moss      	25	moss06      	255	alive    	1	still	0	natural 	1	n	0	0        	 	0.0	0	167.469572299975	167.569540199998	0.09996790002333
71419	100	48	stimuli/animals2/whale/animal_whale03.jpg        	1	1	1	animal_whale03.jpg   	animals2 	1	whale     	39	whale03     	392	alive    	1	moves	1	natural 	1	n	0	0        	 	0.0	0	167.619531499979	167.719538299949	0.100006799970288
71569	100	49	stimuli/plant2/fern/plant_fern01.jpg             	1	1	1	plant_fern01.jpg     	plant2   	7	fern      	14	fern01      	140	alive    	1	still	0	natural 	1	n	1	0        	 	0.0	0	167.769553599996	167.869528899959	0.0999752999632619
71719	100	50	stimuli/plant2/palmtree/plant_palmtree01.jpg     	1	1	1	plant_palmtree01.jpg 	plant2   	7	palmtree  	27	palmtree01  	270	alive    	1	still	0	natural 	1	n	0	0        	 	0.0	0	167.919538099959	168.019534299965	0.0999962000059895
71869	100	51	stimuli/movNat/fire/mn_fire01.jpg                	1	1	1	mn_fire01.jpg        	movNat   	3	fire      	15	fire01      	150	not_alive	0	moves	1	natural 	1	n	0	1        	f	0.30645849998109	1	168.069558299961	168.169538999966	0.0999807000043802
72019	100	52	stimuli/nonmovNat/shell/nmn_shell06.jpg          	1	1	1	nmn_shell06.jpg      	nonmovNat	5	shell     	32	shell06     	325	not_alive	0	still	0	natural 	1	n	0	0        	 	0.0	0	168.219577099953	168.319551499968	0.0999744000146166
72169	100	53	stimuli/movNat/waves/mn_waves04.jpg              	1	1	1	mn_waves04.jpg       	movNat   	3	waves     	38	waves04     	383	not_alive	0	moves	1	natural 	1	n	0	0        	 	0.0	0	168.369558599952	168.4695526	0.0999940000474453
72319	100	54	stimuli/movArt/train/ma_train10.jpg              	1	1	1	ma_train10.jpg       	movArt   	2	train     	34	train10     	349	not_alive	0	moves	1	artefact	0	n	0	0        	 	0.0	0	168.5195618	168.619553599972	0.0999917999724858
72469	100	55	stimuli/movArt/train/ma_train07.jpg              	1	1	1	ma_train07.jpg       	movArt   	2	train     	34	train07     	346	not_alive	0	moves	1	artefact	0	n	0	0        	 	0.0	0	168.669564999989	168.769578299951	0.100013299961574
72619	100	56	stimuli/movNat/fire/mn_fire05.jpg                	1	1	1	mn_fire05.jpg        	movNat   	3	fire      	15	fire05      	154	not_alive	0	moves	1	natural 	1	n	0	0        	 	0.0	0	168.819590999978	168.919575699954	0.0999846999766305
72769	100	57	stimuli/plant2/lemontree/plant_lemontree02.jpg   	1	1	1	plant_lemontree02.jpg	plant2   	7	lemontree 	22	lemontree02 	221	alive    	1	still	0	natural 	1	n	0	0        	 	0.0	0	168.969589099986	169.069569799991	0.0999807000043802
72919	100	58	stimuli/animals/cat/animal_cat07.jpg             	1	1	1	animal_cat07.jpg     	animals  	0	cat       	6	cat07       	66	alive    	1	moves	1	natural 	1	n	0	0        	 	0.0	0	169.119579399994	169.219572799979	0.0999933999846689
73069	100	59	stimuli/movNat/waterfall/mn_waterfall03.jpg      	1	1	1	mn_waterfall03.jpg   	movNat   	3	waterfall 	37	waterfall03 	372	not_alive	0	moves	1	natural 	1	n	0	0        	 	0.0	0	169.269579699961	169.369574799959	0.0999950999976136
73219	100	60	stimuli/nonmovArt/lock/nma_lock01.jpg            	1	1	1	nma_lock01.jpg       	nonmovArt	4	lock      	24	lock01      	240	not_alive	0	still	0	artefact	0	n	0	0        	 	0.0	0	169.419585499971	169.519578399952	0.0999928999808617
73369	100	61	stimuli/nonmovNat/cliff/nmn_cliff07.jpg          	1	1	1	nmn_cliff07.jpg      	nonmovNat	5	cliff     	7	cliff07     	76	not_alive	0	still	0	natural 	1	n	0	0        	 	0.0	0	169.569596699963	169.66958279995	0.0999860999872908
73519	100	62	stimuli/nonmovArt/headphones/nma_headphones09.jpg	1	1	1	nma_headphones09.jpg 	nonmovArt	4	headphones	18	headphones09	188	not_alive	0	still	0	artefact	0	n	0	0        	 	0.0	0	169.719610799977	169.819585899997	0.0999751000199467
73669	100	63	stimuli/plant2/palmtree/plant_palmtree04.jpg     	1	1	1	plant_palmtree04.jpg 	plant2   	7	palmtree  	27	palmtree04  	273	alive    	1	still	0	natural 	1	n	0	0        	 	0.0	0	169.86959649995	169.969591400004	0.0999949000542983
73819	100	64	stimuli/nonmovNat/crystal/nmn_crystal01.jpg      	1	1	1	nmn_crystal01.jpg    	nonmovNat	5	crystal   	10	crystal01   	100	not_alive	0	still	0	natural 	1	n	0	0        	 	0.0	0	170.019601799955	170.119588999951	0.0999871999956667
73969	100	65	stimuli/nonmovNat/shell/nmn_shell06.jpg          	1	1	1	nmn_shell06.jpg      	nonmovNat	5	shell     	32	shell06     	325	not_alive	0	still	0	natural 	1	n	0	0        	 	0.0	0	170.169599099958	170.269607900002	0.100008800043724
74119	100	66	stimuli/movNat/river/mn_river10.jpg              	1	1	1	mn_river10.jpg       	movNat   	3	river     	29	river10     	299	not_alive	0	moves	1	natural 	1	n	0	0        	 	0.0	0	170.319608899998	170.419595599989	0.0999866999918595
74269	100	67	stimuli/nonmovNat/rock/nmn_rock10.jpg            	1	1	1	nmn_rock10.jpg       	nonmovNat	5	rock      	30	rock10      	309	not_alive	0	still	0	natural 	1	n	1	0        	 	0.0	0	170.469606300001	170.569628999976	0.100022699974943
74419	100	68	stimuli/nonmovArt/bench/nma_bench01.jpg          	1	1	1	nma_bench01.jpg      	nonmovArt	4	bench     	1	bench01     	10	not_alive	0	still	0	artefact	0	n	0	0        	 	0.0	0	170.619609599991	170.71960489999	0.0999952999991365
74569	100	69	stimuli/animals2/pigeon/animal_pigeon08.jpg      	1	1	1	animal_pigeon08.jpg  	animals2 	1	pigeon    	28	pigeon08    	287	alive    	1	moves	1	natural 	1	n	0	1        	f	0.292214299959596	1	170.769619699975	170.869607899978	0.0999882000032812
74719	100	70	stimuli/animals2/lemur/animal_lemur07.jpg        	1	1	1	animal_lemur07.jpg   	animals2 	1	lemur     	23	lemur07     	236	alive    	1	moves	1	natural 	1	n	0	0        	 	0.0	0	170.919617499982	171.019613199984	0.0999957000021823
74869	100	71	stimuli/animals/eagle/animal_eagle02.jpg         	1	1	1	animal_eagle02.jpg   	animals  	0	eagle     	13	eagle02     	131	alive    	1	moves	1	natural 	1	n	0	0        	 	0.0	0	171.069626499957	171.169636199949	0.10000969999237
75019	100	72	stimuli/plant/cactus/plant_cactus06.jpg          	1	1	1	plant_cactus06.jpg   	plant    	6	cactus    	4	cactus06    	45	alive    	1	still	0	natural 	1	n	0	0        	 	0.0	0	171.21964809997	171.319622599985	0.099974500015378
75169	100	73	stimuli/animals/dolphin/animal_dolphin09.jpg     	1	1	1	animal_dolphin09.jpg 	animals  	0	dolphin   	12	dolphin09   	128	alive    	1	moves	1	natural 	1	n	0	0        	 	0.0	0	171.369628799963	171.469622899953	0.0999940999899991
75319	100	74	stimuli/animals2/lemur/animal_lemur05.jpg        	1	1	1	animal_lemur05.jpg   	animals2 	1	lemur     	23	lemur05     	234	alive    	1	moves	1	natural 	1	n	0	0        	 	0.0	0	171.519633899967	171.619628199958	0.099994299991522
75469	100	75	stimuli/nonmovArt/bench/nma_bench06.jpg          	1	1	1	nma_bench06.jpg      	nonmovArt	4	bench     	1	bench06     	15	not_alive	0	still	0	artefact	0	n	0	0        	 	0.0	0	171.669638099964	171.769634999975	0.0999969000113197
75619	100	76	stimuli/plant/tree/plant_tree08.jpg              	1	1	1	plant_tree08.jpg     	plant    	6	tree      	35	tree08      	357	alive    	1	still	0	natural 	1	n	0	0        	 	0.0	0	171.819640599948	171.919662999979	0.100022400030866
75769	100	77	stimuli/nonmovArt/mug/nma_mug03.jpg              	1	1	1	nma_mug03.jpg        	nonmovArt	4	mug       	26	mug03       	262	not_alive	0	still	0	artefact	0	n	0	0        	 	0.0	0	171.969648199971	172.069659099972	0.100010900001507
75919	100	78	stimuli/movNat/waves/mn_waves05.jpg              	1	1	1	mn_waves05.jpg       	movNat   	3	waves     	38	waves05     	384	not_alive	0	moves	1	natural 	1	n	0	0        	 	0.0	0	172.119650399953	172.21964309999	0.0999927000375465
76069	100	79	stimuli/movNat/waterfall/mn_waterfall03.jpg      	1	1	1	mn_waterfall03.jpg   	movNat   	3	waterfall 	37	waterfall03 	372	not_alive	0	moves	1	natural 	1	n	0	0        	 	0.0	0	172.269655799959	172.369667799969	0.100012000009883
90403	100	80	stimuli/nonmovNat/rock/nmn_rock06.jpg            	1	2	1	nmn_rock06.jpg       	nonmovNat	5	rock      	30	rock06      	305	not_alive	0	still	0	natural 	1	n	0	0        	 	0.0	0	186.603374799946	186.703365799971	0.0999910000246018
90553	100	81	stimuli/plant/flower/plant_flower02.jpg          	1	2	1	plant_flower02.jpg   	plant    	6	flower    	16	flower02    	161	alive    	1	still	0	natural 	1	n	0	0        	 	0.0	0	186.753387999954	186.853370399971	0.0999824000173248
90703	100	82	stimuli/movNat/fire/mn_fire05.jpg                	1	2	1	mn_fire05.jpg        	movNat   	3	fire      	15	fire05      	154	not_alive	0	moves	1	natural 	1	n	0	0        	 	0.0	0	186.903396599984	187.003372699954	0.0999760999693535
90853	100	83	stimuli/nonmovNat/cliff/nmn_cliff05.jpg          	1	2	1	nmn_cliff05.jpg      	nonmovNat	5	cliff     	7	cliff05     	74	not_alive	0	still	0	natural 	1	n	0	0        	 	0.0	0	187.053411100002	187.15337049996	0.0999593999586068
91003	100	84	stimuli/animals/dog/animal_dog05.jpg             	1	2	1	animal_dog05.jpg     	animals  	0	dog       	11	dog05       	114	alive    	1	moves	1	natural 	1	n	0	0        	 	0.0	0	187.203382899985	187.30337899999	0.0999961000052281
91153	100	85	stimuli/nonmovArt/headphones/nma_headphones04.jpg	1	2	1	nma_headphones04.jpg 	nonmovArt	4	headphones	18	headphones04	183	not_alive	0	still	0	artefact	0	n	0	0        	 	0.0	0	187.353388599993	187.45337969996	0.0999910999671556
91303	100	86	stimuli/animals2/bee/animal_bee06.jpg            	1	2	1	animal_bee06.jpg     	animals2 	1	bee       	0	bee06       	5	alive    	1	moves	1	natural 	1	n	0	0        	 	0.0	0	187.503407199983	187.6033819	0.0999747000169009
91453	100	87	stimuli/movArt/helicopter/ma_helicopter01.jpg    	1	2	1	ma_helicopter01.jpg  	movArt   	2	helicopter	19	helicopter01	190	not_alive	0	moves	1	artefact	0	n	0	0        	 	0.0	0	187.653401799966	187.753386800003	0.0999850000371225
91603	100	88	stimuli/movArt/boat/ma_boat03.jpg                	1	2	1	ma_boat03.jpg        	movArt   	2	boat      	2	boat03      	22	not_alive	0	moves	1	artefact	0	n	0	0        	 	0.0	0	187.803427499952	187.903394499968	0.099967000016477
91753	100	89	stimuli/movNat/hotspring/mn_hotspring10.jpg      	1	2	1	mn_hotspring10.jpg   	movNat   	3	hotspring 	21	hotspring10 	219	not_alive	0	moves	1	natural 	1	n	0	0        	 	0.0	0	187.953419599973	188.05340699997	0.0999873999971896
91903	100	90	stimuli/animals/dolphin/animal_dolphin10.jpg     	1	2	1	animal_dolphin10.jpg 	animals  	0	dolphin   	12	dolphin10   	129	alive    	1	moves	1	natural 	1	n	0	0        	 	0.0	0	188.103427399998	188.203407199995	0.0999797999975272
92053	100	91	stimuli/animals/dolphin/animal_dolphin01.jpg     	1	2	1	animal_dolphin01.jpg 	animals  	0	dolphin   	12	dolphin01   	120	alive    	1	moves	1	natural 	1	n	0	0        	 	0.0	0	188.253428899974	188.353409399977	0.0999805000028573
92203	100	92	stimuli/plant/tree/plant_tree03.jpg              	1	2	1	plant_tree03.jpg     	plant    	6	tree      	35	tree03      	352	alive    	1	still	0	natural 	1	n	0	0        	 	0.0	0	188.403429999948	188.503413899976	0.0999839000287466
92353	100	93	stimuli/movNat/hotspring/mn_hotspring08.jpg      	1	2	1	mn_hotspring08.jpg   	movNat   	3	hotspring 	21	hotspring08 	217	not_alive	0	moves	1	natural 	1	n	0	0        	 	0.0	0	188.553426400002	188.65341629996	0.0999898999580182
92503	100	94	stimuli/plant2/moss/plant_moss01.jpg             	1	2	1	plant_moss01.jpg     	plant2   	7	moss      	25	moss01      	250	alive    	1	still	0	natural 	1	n	0	0        	 	0.0	0	188.703424699954	188.803417799994	0.0999931000405922
92653	100	95	stimuli/nonmovArt/lock/nma_lock10.jpg            	1	2	1	nma_lock10.jpg       	nonmovArt	4	lock      	24	lock10      	249	not_alive	0	still	0	artefact	0	n	0	0        	 	0.0	0	188.853430799965	188.953427899978	0.0999971000128426
92803	100	96	stimuli/plant/grass/plant_grass03.jpg            	1	2	1	plant_grass03.jpg    	plant    	6	grass     	17	grass03     	172	alive    	1	still	0	natural 	1	n	0	0        	 	0.0	0	189.003436299972	189.103424699977	0.0999884000048041
92953	100	97	stimuli/movArt/car/ma_car07.jpg                  	1	2	1	ma_car07.jpg         	movArt   	2	car       	5	car07       	56	not_alive	0	moves	1	artefact	0	n	0	0        	 	0.0	0	189.153433999978	189.253427299962	0.0999932999839075
93103	100	98	stimuli/nonmovNat/cliff/nmn_cliff09.jpg          	1	2	1	nmn_cliff09.jpg      	nonmovNat	5	cliff     	7	cliff09     	78	not_alive	0	still	0	natural 	1	n	0	0        	 	0.0	0	189.303438099974	189.403430099948	0.0999919999740086
93253	100	99	stimuli/animals2/tiger/animal_tiger06.jpg        	1	2	1	animal_tiger06.jpg   	animals2 	1	tiger     	33	tiger06     	335	alive    	1	moves	1	natural 	1	n	0	0        	 	0.0	0	189.453440699959	189.553433599998	0.0999929000390694
93403	100	100	stimuli/plant/tree/plant_tree02.jpg              	1	2	1	plant_tree02.jpg     	plant    	6	tree      	35	tree02      	351	alive    	1	still	0	natural 	1	n	0	0        	 	0.0	0	189.603444699955	189.70343949995	0.0999947999953292
93553	100	101	stimuli/nonmovArt/clothespeg/nma_clothespeg08.jpg	1	2	1	nma_clothespeg08.jpg 	nonmovArt	4	clothespeg	8	clothespeg08	87	not_alive	0	still	0	artefact	0	n	0	0        	 	0.0	0	189.753450899967	189.853442799998	0.0999919000314549
93703	100	102	stimuli/plant/flower/plant_flower10.jpg          	1	2	1	plant_flower10.jpg   	plant    	6	flower    	16	flower10    	169	alive    	1	still	0	natural 	1	n	0	0        	 	0.0	0	189.903451599996	190.003468999988	0.100017399992794
93853	100	103	stimuli/animals2/bee/animal_bee08.jpg            	1	2	1	animal_bee08.jpg     	animals2 	1	bee       	0	bee08       	7	alive    	1	moves	1	natural 	1	n	0	0        	 	0.0	0	190.053457499947	190.153451899998	0.0999944000504911
94003	100	104	stimuli/movArt/boat/ma_boat05.jpg                	1	2	1	ma_boat05.jpg        	movArt   	2	boat      	2	boat05      	24	not_alive	0	moves	1	artefact	0	n	0	0        	 	0.0	0	190.203462699952	190.303472	0.100009300047532
94153	100	105	stimuli/animals/horse/animal_horse04.jpg         	1	2	1	animal_horse04.jpg   	animals  	0	horse     	20	horse04     	203	alive    	1	moves	1	natural 	1	n	1	0        	 	0.0	0	190.353465799999	190.453459499986	0.0999936999869533
94303	100	106	stimuli/movNat/river/mn_river01.jpg              	1	2	1	mn_river01.jpg       	movNat   	3	river     	29	river01     	290	not_alive	0	moves	1	natural 	1	n	0	0        	 	0.0	0	190.503467499977	190.603461599967	0.0999940999899991
94453	100	107	stimuli/nonmovArt/mug/nma_mug03.jpg              	1	2	1	nma_mug03.jpg        	nonmovArt	4	mug       	26	mug03       	262	not_alive	0	still	0	artefact	0	n	0	1        	f	0.392002899956424	1	190.653471399972	190.753496599966	0.100025199993979
94603	100	108	stimuli/plant2/palmtree/plant_palmtree05.jpg     	1	2	1	plant_palmtree05.jpg 	plant2   	7	palmtree  	27	palmtree05  	274	alive    	1	still	0	natural 	1	n	0	0        	 	0.0	0	190.803475899971	190.903470199963	0.099994299991522
94753	100	109	stimuli/nonmovArt/clothespeg/nma_clothespeg02.jpg	1	2	1	nma_clothespeg02.jpg 	nonmovArt	4	clothespeg	8	clothespeg02	81	not_alive	0	still	0	artefact	0	n	0	0        	 	0.0	0	190.953484199999	191.053472300002	0.0999881000025198
94903	100	110	stimuli/nonmovArt/clothespeg/nma_clothespeg09.jpg	1	2	1	nma_clothespeg09.jpg 	nonmovArt	4	clothespeg	8	clothespeg09	88	not_alive	0	still	0	artefact	0	n	0	0        	 	0.0	0	191.103482599952	191.203478699958	0.0999961000052281
95053	100	111	stimuli/nonmovArt/headphones/nma_headphones07.jpg	1	2	1	nma_headphones07.jpg 	nonmovArt	4	headphones	18	headphones07	186	not_alive	0	still	0	artefact	0	n	0	0        	 	0.0	0	191.253496599966	191.353504500003	0.100007900036871
95203	100	112	stimuli/nonmovNat/crystal/nmn_crystal06.jpg      	1	2	1	nmn_crystal06.jpg    	nonmovNat	5	crystal   	10	crystal06   	105	not_alive	0	still	0	natural 	1	n	0	0        	 	0.0	0	191.403494199971	191.503502699954	0.100008499983232
95353	100	113	stimuli/animals/cat/animal_cat06.jpg             	1	2	1	animal_cat06.jpg     	animals  	0	cat       	6	cat06       	65	alive    	1	moves	1	natural 	1	n	0	0        	 	0.0	0	191.553495699947	191.653492099955	0.0999964000075124
95503	100	114	stimuli/plant/grass/plant_grass01.jpg            	1	2	1	plant_grass01.jpg    	plant    	6	grass     	17	grass01     	170	alive    	1	still	0	natural 	1	n	0	0        	 	0.0	0	191.703498499992	191.803492599982	0.0999940999899991
95653	100	115	stimuli/animals/horse/animal_horse05.jpg         	1	2	1	animal_horse05.jpg   	animals  	0	horse     	20	horse05     	204	alive    	1	moves	1	natural 	1	n	0	0        	 	0.0	0	191.853529199958	191.953500100004	0.0999709000461735
95803	100	116	stimuli/animals2/tiger/animal_tiger04.jpg        	1	2	1	animal_tiger04.jpg   	animals2 	1	tiger     	33	tiger04     	333	alive    	1	moves	1	natural 	1	n	0	0        	 	0.0	0	192.003508900001	192.103526999999	0.100018099998124
95953	100	117	stimuli/movArt/train/ma_train04.jpg              	1	2	1	ma_train04.jpg       	movArt   	2	train     	34	train04     	343	not_alive	0	moves	1	artefact	0	n	0	0        	 	0.0	0	192.153532399971	192.253515499993	0.099983100022655
96103	100	118	stimuli/plant/flower/plant_flower08.jpg          	1	2	1	plant_flower08.jpg   	plant    	6	flower    	16	flower08    	167	alive    	1	still	0	natural 	1	n	0	0        	 	0.0	0	192.303534699953	192.403508499963	0.0999738000100478
96253	100	119	stimuli/animals2/pigeon/animal_pigeon09.jpg      	1	2	1	animal_pigeon09.jpg  	animals2 	1	pigeon    	28	pigeon09    	288	alive    	1	moves	1	natural 	1	n	0	0        	 	0.0	0	192.453551199986	192.553515399981	0.0999641999951564
96403	100	120	stimuli/movArt/boat/ma_boat10.jpg                	1	2	1	ma_boat10.jpg        	movArt   	2	boat      	2	boat10      	29	not_alive	0	moves	1	artefact	0	n	0	0        	 	0.0	0	192.603535399947	192.703518099966	0.0999827000196092
96553	100	121	stimuli/animals/dolphin/animal_dolphin08.jpg     	1	2	1	animal_dolphin08.jpg 	animals  	0	dolphin   	12	dolphin08   	127	alive    	1	moves	1	natural 	1	n	0	0        	 	0.0	0	192.753526499961	192.853533199988	0.100006700027734
96703	100	122	stimuli/animals2/tiger/animal_tiger07.jpg        	1	2	1	animal_tiger07.jpg   	animals2 	1	tiger     	33	tiger07     	336	alive    	1	moves	1	natural 	1	n	0	0        	 	0.0	0	192.903533099976	193.003524699947	0.0999915999709628
96853	100	123	stimuli/plant2/lemontree/plant_lemontree06.jpg   	1	2	1	plant_lemontree06.jpg	plant2   	7	lemontree 	22	lemontree06 	225	alive    	1	still	0	natural 	1	n	0	0        	 	0.0	0	193.05354959995	193.153531799966	0.0999822000158019
97003	100	124	stimuli/movArt/helicopter/ma_helicopter10.jpg    	1	2	1	ma_helicopter10.jpg  	movArt   	2	helicopter	19	helicopter10	199	not_alive	0	moves	1	artefact	0	n	0	0        	 	0.0	0	193.203554799955	193.303533999948	0.0999791999929585
97153	100	125	stimuli/plant2/fern/plant_fern08.jpg             	1	2	1	plant_fern08.jpg     	plant2   	7	fern      	14	fern08      	147	alive    	1	still	0	natural 	1	n	0	0        	 	0.0	0	193.353567599959	193.453535399982	0.0999678000225686
97303	100	126	stimuli/movNat/waterfall/mn_waterfall02.jpg      	1	2	1	mn_waterfall02.jpg   	movNat   	3	waterfall 	37	waterfall02 	371	not_alive	0	moves	1	natural 	1	n	0	0        	 	0.0	0	193.503546899999	193.603540799988	0.0999938999884762
97453	100	127	stimuli/movNat/river/mn_river05.jpg              	1	2	1	mn_river05.jpg       	movNat   	3	river     	29	river05     	294	not_alive	0	moves	1	natural 	1	n	0	0        	 	0.0	0	193.653564899985	193.753546699998	0.0999818000127561
97603	100	128	stimuli/nonmovNat/rock/nmn_rock04.jpg            	1	2	1	nmn_rock04.jpg       	nonmovNat	5	rock      	30	rock04      	303	not_alive	0	still	0	natural 	1	n	0	0        	 	0.0	0	193.803553799982	193.90355259995	0.0999987999675795
97753	100	129	stimuli/movNat/hotspring/mn_hotspring07.jpg      	1	2	1	mn_hotspring07.jpg   	movNat   	3	hotspring 	21	hotspring07 	216	not_alive	0	moves	1	natural 	1	n	0	0        	 	0.0	0	193.953576	194.053562599991	0.099986599991098
97903	100	130	stimuli/nonmovArt/lock/nma_lock01.jpg            	1	2	1	nma_lock01.jpg       	nonmovArt	4	lock      	24	lock01      	240	not_alive	0	still	0	artefact	0	n	0	0        	 	0.0	0	194.10357539996	194.20355679997	0.0999814000097103
98053	100	131	stimuli/nonmovArt/bench/nma_bench10.jpg          	1	2	1	nma_bench10.jpg      	nonmovArt	4	bench     	1	bench10     	19	not_alive	0	still	0	artefact	0	n	0	0        	 	0.0	0	194.253570499946	194.353560799966	0.0999903000192717
98203	100	132	stimuli/animals/dolphin/animal_dolphin08.jpg     	1	2	1	animal_dolphin08.jpg 	animals  	0	dolphin   	12	dolphin08   	127	alive    	1	moves	1	natural 	1	n	0	1        	f	0.0	0	194.40357179998	194.503567199979	0.0999953999998979
98353	100	133	stimuli/animals/cat/animal_cat08.jpg             	1	2	1	animal_cat08.jpg     	animals  	0	cat       	6	cat08       	67	alive    	1	moves	1	natural 	1	n	0	0        	 	0.0	0	194.553576199978	194.653568899957	0.0999926999793388
98503	100	134	stimuli/movNat/waves/mn_waves09.jpg              	1	2	1	mn_waves09.jpg       	movNat   	3	waves     	38	waves09     	388	not_alive	0	moves	1	natural 	1	n	0	0        	 	0.0	0	194.703582799993	194.803570799995	0.0999880000017583
98653	100	135	stimuli/nonmovNat/shell/nmn_shell08.jpg          	1	2	1	nmn_shell08.jpg      	nonmovNat	5	shell     	32	shell08     	327	not_alive	0	still	0	natural 	1	n	0	0        	 	0.0	0	194.853582199954	194.953577599954	0.0999953999998979
98803	100	136	stimuli/plant2/clover/plant_clover06.jpg         	1	2	1	plant_clover06.jpg   	plant2   	7	clover    	9	clover06    	95	alive    	1	still	0	natural 	1	n	0	0        	 	0.0	0	195.003587799962	195.103581499949	0.0999936999869533
98953	100	137	stimuli/plant/flower/plant_flower08.jpg          	1	2	1	plant_flower08.jpg   	plant    	6	flower    	16	flower08    	167	alive    	1	still	0	natural 	1	n	0	0        	 	0.0	0	195.153592299961	195.253603399964	0.10001110000303
99103	100	138	stimuli/animals/eagle/animal_eagle01.jpg         	1	2	1	animal_eagle01.jpg   	animals  	0	eagle     	13	eagle01     	130	alive    	1	moves	1	natural 	1	n	1	0        	 	0.0	0	195.303612999967	195.403609499976	0.0999965000082739
99253	100	139	stimuli/plant2/palmtree/plant_palmtree03.jpg     	1	2	1	plant_palmtree03.jpg 	plant2   	7	palmtree  	27	palmtree03  	272	alive    	1	still	0	natural 	1	n	0	0        	 	0.0	0	195.453599799948	195.553593599994	0.0999938000459224
99403	100	140	stimuli/animals/dolphin/animal_dolphin05.jpg     	1	2	1	animal_dolphin05.jpg 	animals  	0	dolphin   	12	dolphin05   	124	alive    	1	moves	1	natural 	1	n	0	0        	 	0.0	0	195.6036036	195.703595799976	0.0999921999755316
99553	100	141	stimuli/movNat/waves/mn_waves06.jpg              	1	2	1	mn_waves06.jpg       	movNat   	3	waves     	38	waves06     	385	not_alive	0	moves	1	natural 	1	n	0	0        	 	0.0	0	195.753607399995	195.853600299975	0.0999928999808617
99703	100	142	stimuli/plant/flower/plant_flower07.jpg          	1	2	1	plant_flower07.jpg   	plant    	6	flower    	16	flower07    	166	alive    	1	still	0	natural 	1	n	0	0        	 	0.0	0	195.903611499991	196.003604099969	0.0999925999785774
99853	100	143	stimuli/nonmovNat/cliff/nmn_cliff06.jpg          	1	2	1	nmn_cliff06.jpg      	nonmovNat	5	cliff     	7	cliff06     	75	not_alive	0	still	0	natural 	1	n	0	0        	 	0.0	0	196.053614399978	196.153609999979	0.0999956000014208
100003	100	144	stimuli/plant2/clover/plant_clover07.jpg         	1	2	1	plant_clover07.jpg   	plant2   	7	clover    	9	clover07    	96	alive    	1	still	0	natural 	1	n	0	0        	 	0.0	0	196.203623699956	196.303655199998	0.10003150004195
100153	100	145	stimuli/movArt/train/ma_train09.jpg              	1	2	1	ma_train09.jpg       	movArt   	2	train     	34	train09     	348	not_alive	0	moves	1	artefact	0	n	1	0        	 	0.0	0	196.353622899973	196.453615799954	0.0999928999808617
100303	100	146	stimuli/movArt/boat/ma_boat07.jpg                	1	2	1	ma_boat07.jpg        	movArt   	2	boat      	2	boat07      	26	not_alive	0	moves	1	artefact	0	n	0	0        	 	0.0	0	196.503627499973	196.603619200003	0.099991700029932
100453	100	147	stimuli/nonmovNat/sand/nmn_sand09.jpg            	1	2	1	nmn_sand09.jpg       	nonmovNat	5	sand      	31	sand09      	318	not_alive	0	still	0	natural 	1	n	0	0        	 	0.0	0	196.65364569996	196.753625199955	0.0999794999952428
100603	100	148	stimuli/nonmovNat/sand/nmn_sand05.jpg            	1	2	1	nmn_sand05.jpg       	nonmovNat	5	sand      	31	sand05      	314	not_alive	0	still	0	natural 	1	n	0	0        	 	0.0	0	196.803634199954	196.903630599962	0.0999964000075124
100753	100	149	stimuli/plant2/lemontree/plant_lemontree10.jpg   	1	2	1	plant_lemontree10.jpg	plant2   	7	lemontree 	22	lemontree10 	229	alive    	1	still	0	natural 	1	n	0	0        	 	0.0	0	196.953639199957	197.053660699981	0.100021500024013
100903	100	150	stimuli/animals/horse/animal_horse08.jpg         	1	2	1	animal_horse08.jpg   	animals  	0	horse     	20	horse08     	207	alive    	1	moves	1	natural 	1	n	0	0        	 	0.0	0	197.103643299954	197.203637600003	0.0999943000497296
101053	100	151	stimuli/plant2/palmtree/plant_palmtree07.jpg     	1	2	1	plant_palmtree07.jpg 	plant2   	7	palmtree  	27	palmtree07  	276	alive    	1	still	0	natural 	1	n	0	0        	 	0.0	0	197.253650299972	197.353656199994	0.100005900021642
101203	100	152	stimuli/animals2/whale/animal_whale04.jpg        	1	2	1	animal_whale04.jpg   	animals2 	1	whale     	39	whale04     	393	alive    	1	moves	1	natural 	1	n	0	0        	 	0.0	0	197.403650499997	197.503642599971	0.0999920999747701
101353	100	153	stimuli/movNat/river/mn_river02.jpg              	1	2	1	mn_river02.jpg       	movNat   	3	river     	29	river02     	291	not_alive	0	moves	1	natural 	1	n	0	0        	 	0.0	0	197.553653499985	197.653675799957	0.100022299971897
101503	100	154	stimuli/plant/grass/plant_grass05.jpg            	1	2	1	plant_grass05.jpg    	plant    	6	grass     	17	grass05     	174	alive    	1	still	0	natural 	1	n	0	0        	 	0.0	0	197.703659699997	197.803683099977	0.100023399980273
101653	100	155	stimuli/movNat/river/mn_river08.jpg              	1	2	1	mn_river08.jpg       	movNat   	3	river     	29	river08     	297	not_alive	0	moves	1	natural 	1	n	0	0        	 	0.0	0	197.85366199998	197.953657199978	0.099995199998375
101803	100	156	stimuli/movNat/waves/mn_waves06.jpg              	1	2	1	mn_waves06.jpg       	movNat   	3	waves     	38	waves06     	385	not_alive	0	moves	1	natural 	1	n	0	0        	 	0.0	0	198.003666899982	198.103659999964	0.0999930999823846
101953	100	157	stimuli/nonmovArt/clothespeg/nma_clothespeg10.jpg	1	2	1	nma_clothespeg10.jpg 	nonmovArt	4	clothespeg	8	clothespeg10	89	not_alive	0	still	0	artefact	0	n	0	0        	 	0.0	0	198.153712699946	198.253664499964	0.099951800017152
102103	100	158	stimuli/nonmovNat/cliff/nmn_cliff07.jpg          	1	2	1	nmn_cliff07.jpg      	nonmovNat	5	cliff     	7	cliff07     	76	not_alive	0	still	0	natural 	1	n	0	0        	 	0.0	0	198.303674399969	198.403681900003	0.100007500033826
102253	100	159	stimuli/nonmovArt/mug/nma_mug01.jpg              	1	2	1	nma_mug01.jpg        	nonmovArt	4	mug       	26	mug01       	260	not_alive	0	still	0	artefact	0	n	0	0        	 	0.0	0	198.453678099962	198.553672099952	0.0999939999892376
104903	100	160	stimuli/animals/cat/animal_cat09.jpg             	1	3	1	animal_cat09.jpg     	animals  	0	cat       	6	cat09       	68	alive    	1	moves	1	natural 	1	n	0	0        	 	0.0	0	201.103755599994	201.20376449998	0.100008899986278
105053	100	161	stimuli/movArt/car/ma_car05.jpg                  	1	3	1	ma_car05.jpg         	movArt   	2	car       	5	car05       	54	not_alive	0	moves	1	artefact	0	n	0	0        	 	0.0	0	201.253772999975	201.35378179996	0.100008799985517
105203	100	162	stimuli/plant2/fern/plant_fern04.jpg             	1	3	1	plant_fern04.jpg     	plant2   	7	fern      	14	fern04      	143	alive    	1	still	0	natural 	1	n	0	0        	 	0.0	0	201.40376159997	201.50375199999	0.0999904000200331
105353	100	163	stimuli/movArt/boat/ma_boat06.jpg                	1	3	1	ma_boat06.jpg        	movArt   	2	boat      	2	boat06      	25	not_alive	0	moves	1	artefact	0	n	0	0        	 	0.0	0	201.553760299983	201.653754199971	0.0999938999884762
105503	100	164	stimuli/plant2/palmtree/plant_palmtree03.jpg     	1	3	1	plant_palmtree03.jpg 	plant2   	7	palmtree  	27	palmtree03  	272	alive    	1	still	0	natural 	1	n	0	0        	 	0.0	0	201.703763599973	201.803755899949	0.099992299976293
105653	100	165	stimuli/animals2/lemur/animal_lemur01.jpg        	1	3	1	animal_lemur01.jpg   	animals2 	1	lemur     	23	lemur01     	230	alive    	1	moves	1	natural 	1	n	0	0        	 	0.0	0	201.853768599976	201.953776699957	0.100008099980187
105803	100	166	stimuli/nonmovNat/crystal/nmn_crystal02.jpg      	1	3	1	nmn_crystal02.jpg    	nonmovNat	5	crystal   	10	crystal02   	101	not_alive	0	still	0	natural 	1	n	0	0        	 	0.0	0	202.00377369998	202.103795899951	0.100022199971136
105953	100	167	stimuli/movArt/bus/ma_bus07.jpg                  	1	3	1	ma_bus07.jpg         	movArt   	2	bus       	3	bus07       	36	not_alive	0	moves	1	artefact	0	n	0	0        	 	0.0	0	202.153775899962	202.25377229997	0.0999964000075124
106103	100	168	stimuli/animals/horse/animal_horse01.jpg         	1	3	1	animal_horse01.jpg   	animals  	0	horse     	20	horse01     	200	alive    	1	moves	1	natural 	1	n	0	0        	 	0.0	0	202.303781299968	202.403773400001	0.0999921000329778
106253	100	169	stimuli/nonmovNat/rock/nmn_rock03.jpg            	1	3	1	nmn_rock03.jpg       	nonmovNat	5	rock      	30	rock03      	302	not_alive	0	still	0	natural 	1	n	0	0        	 	0.0	0	202.453806899954	202.553796899971	0.0999900000169873
106403	100	170	stimuli/movArt/train/ma_train02.jpg              	1	3	1	ma_train02.jpg       	movArt   	2	train     	34	train02     	341	not_alive	0	moves	1	artefact	0	n	0	0        	 	0.0	0	202.603789099958	202.703806099948	0.100016999989748
106553	100	171	stimuli/animals/horse/animal_horse05.jpg         	1	3	1	animal_horse05.jpg   	animals  	0	horse     	20	horse05     	204	alive    	1	moves	1	natural 	1	n	0	0        	 	0.0	0	202.753792199946	202.853785899992	0.099993700045161
106703	100	172	stimuli/movNat/fire/mn_fire02.jpg                	1	3	1	mn_fire02.jpg        	movNat   	3	fire      	15	fire02      	151	not_alive	0	moves	1	natural 	1	n	1	0        	 	0.0	0	202.903795399994	203.003789899987	0.0999944999930449
106853	100	173	stimuli/animals2/pigeon/animal_pigeon07.jpg      	1	3	1	animal_pigeon07.jpg  	animals2 	1	pigeon    	28	pigeon07    	286	alive    	1	moves	1	natural 	1	n	0	0        	 	0.0	0	203.053799299989	203.153792499972	0.099993199983146
107003	100	174	stimuli/nonmovNat/rock/nmn_rock09.jpg            	1	3	1	nmn_rock09.jpg       	nonmovNat	5	rock      	30	rock09      	308	not_alive	0	still	0	natural 	1	n	0	1        	f	0.307238599983975	1	203.2038359	203.303820299974	0.0999843999743462
107153	100	175	stimuli/movArt/car/ma_car10.jpg                  	1	3	1	ma_car10.jpg         	movArt   	2	car       	5	car10       	59	not_alive	0	moves	1	artefact	0	n	0	1        	f	0.457282999996096	1	203.353829999978	203.453821200004	0.0999912000261247
107303	100	176	stimuli/plant/tree/plant_tree05.jpg              	1	3	1	plant_tree05.jpg     	plant    	6	tree      	35	tree05      	354	alive    	1	still	0	natural 	1	n	0	0        	 	0.0	0	203.503828599991	203.603824599995	0.0999960000044666
107453	100	177	stimuli/animals2/bee/animal_bee03.jpg            	1	3	1	animal_bee03.jpg     	animals2 	1	bee       	0	bee03       	2	alive    	1	moves	1	natural 	1	n	0	0        	 	0.0	0	203.653834700002	203.753829599998	0.0999948999960907
107603	100	178	stimuli/plant2/clover/plant_clover07.jpg         	1	3	1	plant_clover07.jpg   	plant2   	7	clover    	9	clover07    	96	alive    	1	still	0	natural 	1	n	0	0        	 	0.0	0	203.803851899982	203.903831499978	0.0999795999960042
107753	100	179	stimuli/nonmovNat/shell/nmn_shell04.jpg          	1	3	1	nmn_shell04.jpg      	nonmovNat	5	shell     	32	shell04     	323	not_alive	0	still	0	natural 	1	n	0	0        	 	0.0	0	203.953841699986	204.053836199979	0.0999944999930449
107903	100	180	stimuli/plant2/moss/plant_moss05.jpg             	1	3	1	plant_moss05.jpg     	plant2   	7	moss      	25	moss05      	254	alive    	1	still	0	natural 	1	n	0	0        	 	0.0	0	204.103845799982	204.203841399983	0.0999956000014208
108053	100	181	stimuli/movArt/helicopter/ma_helicopter04.jpg    	1	3	1	ma_helicopter04.jpg  	movArt   	2	helicopter	19	helicopter04	193	not_alive	0	moves	1	artefact	0	n	0	0        	 	0.0	0	204.253854099952	204.35385179997	0.0999977000174113
108203	100	182	stimuli/movNat/waterfall/mn_waterfall09.jpg      	1	3	1	mn_waterfall09.jpg   	movNat   	3	waterfall 	37	waterfall09 	378	not_alive	0	moves	1	natural 	1	n	0	0        	 	0.0	0	204.403862799983	204.503840999969	0.099978199985344
108353	100	183	stimuli/nonmovArt/lock/nma_lock05.jpg            	1	3	1	nma_lock05.jpg       	nonmovArt	4	lock      	24	lock05      	244	not_alive	0	still	0	artefact	0	n	0	0        	 	0.0	0	204.55382739997	204.653831999982	0.100004600011744
108503	100	184	stimuli/animals2/pigeon/animal_pigeon01.jpg      	1	3	1	animal_pigeon01.jpg  	animals2 	1	pigeon    	28	pigeon01    	280	alive    	1	moves	1	natural 	1	n	0	0        	 	0.0	0	204.703850899998	204.80383239995	0.0999814999522641
108653	100	185	stimuli/movNat/fire/mn_fire06.jpg                	1	3	1	mn_fire06.jpg        	movNat   	3	fire      	15	fire06      	155	not_alive	0	moves	1	natural 	1	n	0	0        	 	0.0	0	204.853847499995	204.953841599985	0.0999940999899991
108803	100	186	stimuli/nonmovArt/headphones/nma_headphones04.jpg	1	3	1	nma_headphones04.jpg 	nonmovArt	4	headphones	18	headphones04	183	not_alive	0	still	0	artefact	0	n	0	0        	 	0.0	0	205.003851099988	205.103846399987	0.0999952999991365
108953	100	187	stimuli/animals/dog/animal_dog10.jpg             	1	3	1	animal_dog10.jpg     	animals  	0	dog       	11	dog10       	119	alive    	1	moves	1	natural 	1	n	0	0        	 	0.0	0	205.153856299992	205.253850999987	0.0999946999945678
109103	100	188	stimuli/plant/vine/plant_vine03.jpg              	1	3	1	plant_vine03.jpg     	plant    	6	vine      	36	vine03      	362	alive    	1	still	0	natural 	1	n	0	0        	 	0.0	0	205.303861299995	205.403852699965	0.09999139996944
109253	100	189	stimuli/nonmovArt/headphones/nma_headphones07.jpg	1	3	1	nma_headphones07.jpg 	nonmovArt	4	headphones	18	headphones07	186	not_alive	0	still	0	artefact	0	n	0	0        	 	0.0	0	205.453864299983	205.553858299972	0.0999939999892376
109403	100	190	stimuli/plant2/lemontree/plant_lemontree03.jpg   	1	3	1	plant_lemontree03.jpg	plant2   	7	lemontree 	22	lemontree03 	222	alive    	1	still	0	natural 	1	n	0	0        	 	0.0	0	205.603866699967	205.70386119996	0.0999944999930449
109553	100	191	stimuli/movNat/waterfall/mn_waterfall06.jpg      	1	3	1	mn_waterfall06.jpg   	movNat   	3	waterfall 	37	waterfall06 	375	not_alive	0	moves	1	natural 	1	n	0	0        	 	0.0	0	205.753870199958	205.853870299994	0.100000100035686
109703	100	192	stimuli/animals2/lemur/animal_lemur10.jpg        	1	3	1	animal_lemur10.jpg   	animals2 	1	lemur     	23	lemur10     	239	alive    	1	moves	1	natural 	1	n	0	0        	 	0.0	0	205.9038803	206.003879099968	0.0999987999675795
109853	100	193	stimuli/plant/flower/plant_flower07.jpg          	1	3	1	plant_flower07.jpg   	plant    	6	flower    	16	flower07    	166	alive    	1	still	0	natural 	1	n	0	0        	 	0.0	0	206.053886599955	206.1538956	0.100009000045247
110003	100	194	stimuli/plant2/moss/plant_moss03.jpg             	1	3	1	plant_moss03.jpg     	plant2   	7	moss      	25	moss03      	252	alive    	1	still	0	natural 	1	n	0	0        	 	0.0	0	206.203888999997	206.303882899985	0.0999938999884762
110153	100	195	stimuli/plant/cactus/plant_cactus09.jpg          	1	3	1	plant_cactus09.jpg   	plant    	6	cactus    	4	cactus09    	48	alive    	1	still	0	natural 	1	n	0	0        	 	0.0	0	206.353903099953	206.453886999981	0.0999839000287466
110303	100	196	stimuli/nonmovArt/clothespeg/nma_clothespeg06.jpg	1	3	1	nma_clothespeg06.jpg 	nonmovArt	4	clothespeg	8	clothespeg06	85	not_alive	0	still	0	artefact	0	n	0	0        	 	0.0	0	206.503896499984	206.603891199979	0.0999946999945678
110453	100	197	stimuli/animals2/whale/animal_whale05.jpg        	1	3	1	animal_whale05.jpg   	animals2 	1	whale     	39	whale05     	394	alive    	1	moves	1	natural 	1	n	0	0        	 	0.0	0	206.653901699989	206.753893499961	0.0999917999724858
110603	100	198	stimuli/nonmovArt/bench/nma_bench10.jpg          	1	3	1	nma_bench10.jpg      	nonmovArt	4	bench     	1	bench10     	19	not_alive	0	still	0	artefact	0	n	0	0        	 	0.0	0	206.80390119995	206.903925599996	0.100024400046095
110753	100	199	stimuli/plant2/moss/plant_moss07.jpg             	1	3	1	plant_moss07.jpg     	plant2   	7	moss      	25	moss07      	256	alive    	1	still	0	natural 	1	n	1	0        	 	0.0	0	206.953909499978	207.053900400002	0.0999909000238404
110903	100	200	stimuli/animals/eagle/animal_eagle06.jpg         	1	3	1	animal_eagle06.jpg   	animals  	0	eagle     	13	eagle06     	135	alive    	1	moves	1	natural 	1	n	0	0        	 	0.0	0	207.103925299947	207.203904499998	0.0999792000511661
111053	100	201	stimuli/nonmovArt/clothespeg/nma_clothespeg03.jpg	1	3	1	nma_clothespeg03.jpg 	nonmovArt	4	clothespeg	8	clothespeg03	82	not_alive	0	still	0	artefact	0	n	0	1        	f	0.292204099998344	1	207.253919199982	207.353913099971	0.0999938999884762
111203	100	202	stimuli/nonmovNat/cliff/nmn_cliff01.jpg          	1	3	1	nmn_cliff01.jpg      	nonmovNat	5	cliff     	7	cliff01     	70	not_alive	0	still	0	natural 	1	n	0	0        	 	0.0	0	207.403923399979	207.503930699953	0.100007299974095
111353	100	203	stimuli/movArt/bus/ma_bus01.jpg                  	1	3	1	ma_bus01.jpg         	movArt   	2	bus       	3	bus01       	30	not_alive	0	moves	1	artefact	0	n	0	0        	 	0.0	0	207.553925599961	207.653939499985	0.100013900024351
111503	100	204	stimuli/animals/dog/animal_dog10.jpg             	1	3	1	animal_dog10.jpg     	animals  	0	dog       	11	dog10       	119	alive    	1	moves	1	natural 	1	n	0	0        	 	0.0	0	207.703942099994	207.803919299971	0.0999771999777295
111653	100	205	stimuli/plant/tree/plant_tree04.jpg              	1	3	1	plant_tree04.jpg     	plant    	6	tree      	35	tree04      	353	alive    	1	still	0	natural 	1	n	0	0        	 	0.0	0	207.853940300003	207.953926199989	0.0999858999857679
111803	100	206	stimuli/animals2/tiger/animal_tiger04.jpg        	1	3	1	animal_tiger04.jpg   	animals2 	1	tiger     	33	tiger04     	333	alive    	1	moves	1	natural 	1	n	0	0        	 	0.0	0	208.003941099974	208.10392959998	0.0999885000055656
111953	100	207	stimuli/plant/vine/plant_vine10.jpg              	1	3	1	plant_vine10.jpg     	plant    	6	vine      	36	vine10      	369	alive    	1	still	0	natural 	1	n	0	0        	 	0.0	0	208.153938399977	208.253940899973	0.100002499995753
112103	100	208	stimuli/nonmovArt/mug/nma_mug07.jpg              	1	3	1	nma_mug07.jpg        	nonmovArt	4	mug       	26	mug07       	266	not_alive	0	still	0	artefact	0	n	0	0        	 	0.0	0	208.303960699995	208.403948699997	0.0999880000017583
112253	100	209	stimuli/nonmovArt/lock/nma_lock05.jpg            	1	3	1	nma_lock05.jpg       	nonmovArt	4	lock      	24	lock05      	244	not_alive	0	still	0	artefact	0	n	0	0        	 	0.0	0	208.453947099973	208.553935599979	0.0999885000055656
112403	100	210	stimuli/plant/vine/plant_vine02.jpg              	1	3	1	plant_vine02.jpg     	plant    	6	vine      	36	vine02      	361	alive    	1	still	0	natural 	1	n	0	0        	 	0.0	0	208.603944499977	208.703940499981	0.0999960000044666
112553	100	211	stimuli/nonmovNat/shell/nmn_shell09.jpg          	1	3	1	nmn_shell09.jpg      	nonmovNat	5	shell     	32	shell09     	328	not_alive	0	still	0	natural 	1	n	0	0        	 	0.0	0	208.753988599987	208.85394359997	0.0999549999833107
112703	100	212	stimuli/plant/grass/plant_grass10.jpg            	1	3	1	plant_grass10.jpg    	plant    	6	grass     	17	grass10     	179	alive    	1	still	0	natural 	1	n	0	0        	 	0.0	0	208.903955199989	209.003955699969	0.100000499980524
112853	100	213	stimuli/movNat/hotspring/mn_hotspring10.jpg      	1	3	1	mn_hotspring10.jpg   	movNat   	3	hotspring 	21	hotspring10 	219	not_alive	0	moves	1	natural 	1	n	0	0        	 	0.0	0	209.053956999967	209.153951699962	0.0999946999945678
113003	100	214	stimuli/nonmovArt/bench/nma_bench10.jpg          	1	3	1	nma_bench10.jpg      	nonmovArt	4	bench     	1	bench10     	19	not_alive	0	still	0	artefact	0	n	0	0        	 	0.0	0	209.203961099964	209.303956099961	0.0999949999968521
113153	100	215	stimuli/animals2/bee/animal_bee05.jpg            	1	3	1	animal_bee05.jpg     	animals2 	1	bee       	0	bee05       	4	alive    	1	moves	1	natural 	1	n	0	0        	 	0.0	0	209.353986499947	209.453958899947	0.0999723999993876
113303	100	216	stimuli/animals/dog/animal_dog01.jpg             	1	3	1	animal_dog01.jpg     	animals  	0	dog       	11	dog01       	110	alive    	1	moves	1	natural 	1	n	0	0        	 	0.0	0	209.503993899969	209.603961799992	0.09996790002333
113453	100	217	stimuli/nonmovArt/headphones/nma_headphones05.jpg	1	3	1	nma_headphones05.jpg 	nonmovArt	4	headphones	18	headphones05	184	not_alive	0	still	0	artefact	0	n	0	0        	 	0.0	0	209.653974899964	209.753965899989	0.0999910000246018
113603	100	218	stimuli/nonmovNat/crystal/nmn_crystal10.jpg      	1	3	1	nmn_crystal10.jpg    	nonmovNat	5	crystal   	10	crystal10   	109	not_alive	0	still	0	natural 	1	n	0	0        	 	0.0	0	209.803976900002	209.90399359999	0.100016699987464
113753	100	219	stimuli/plant/cactus/plant_cactus07.jpg          	1	3	1	plant_cactus07.jpg   	plant    	6	cactus    	4	cactus07    	46	alive    	1	still	0	natural 	1	n	0	0        	 	0.0	0	209.953981400002	210.053974699986	0.0999932999839075
113903	100	220	stimuli/movArt/car/ma_car08.jpg                  	1	3	1	ma_car08.jpg         	movArt   	2	car       	5	car08       	57	not_alive	0	moves	1	artefact	0	n	0	0        	 	0.0	0	210.104010599956	210.203980399994	0.0999698000377975
114053	100	221	stimuli/animals2/tiger/animal_tiger01.jpg        	1	3	1	animal_tiger01.jpg   	animals2 	1	tiger     	33	tiger01     	330	alive    	1	moves	1	natural 	1	n	0	0        	 	0.0	0	210.254001899972	210.353984099987	0.0999822000158019
114203	100	222	stimuli/animals2/whale/animal_whale10.jpg        	1	3	1	animal_whale10.jpg   	animals2 	1	whale     	39	whale10     	399	alive    	1	moves	1	natural 	1	n	0	0        	 	0.0	0	210.40399359999	210.503988299984	0.0999946999945678
114353	100	223	stimuli/plant/cactus/plant_cactus09.jpg          	1	3	1	plant_cactus09.jpg   	plant    	6	cactus    	4	cactus09    	48	alive    	1	still	0	natural 	1	n	0	0        	 	0.0	0	210.553997299983	210.653990199964	0.0999928999808617
114503	100	224	stimuli/movArt/helicopter/ma_helicopter09.jpg    	1	3	1	ma_helicopter09.jpg  	movArt   	2	helicopter	19	helicopter09	198	not_alive	0	moves	1	artefact	0	n	0	0        	 	0.0	0	210.704014799965	210.803993399953	0.0999785999883898
114653	100	225	stimuli/animals2/pigeon/animal_pigeon03.jpg      	1	3	1	animal_pigeon03.jpg  	animals2 	1	pigeon    	28	pigeon03    	282	alive    	1	moves	1	natural 	1	n	0	0        	 	0.0	0	210.854024200002	210.953996800003	0.0999726000009105
114803	100	226	stimuli/nonmovArt/mug/nma_mug10.jpg              	1	3	1	nma_mug10.jpg        	nonmovArt	4	mug       	26	mug10       	269	not_alive	0	still	0	artefact	0	n	0	0        	 	0.0	0	211.004009699973	211.104021199979	0.100011500006076
114953	100	227	stimuli/movNat/fire/mn_fire08.jpg                	1	3	1	mn_fire08.jpg        	movNat   	3	fire      	15	fire08      	157	not_alive	0	moves	1	natural 	1	n	0	0        	 	0.0	0	211.154011599952	211.254005700001	0.0999941000482068
115103	100	228	stimuli/plant/tree/plant_tree10.jpg              	1	3	1	plant_tree10.jpg     	plant    	6	tree      	35	tree10      	359	alive    	1	still	0	natural 	1	n	0	0        	 	0.0	0	211.304020099982	211.404010799946	0.0999906999641098
115253	100	229	stimuli/nonmovNat/crystal/nmn_crystal08.jpg      	1	3	1	nmn_crystal08.jpg    	nonmovNat	5	crystal   	10	crystal08   	107	not_alive	0	still	0	natural 	1	n	0	0        	 	0.0	0	211.454020999954	211.554014299996	0.0999933000421152
115403	100	230	stimuli/movArt/bus/ma_bus07.jpg                  	1	3	1	ma_bus07.jpg         	movArt   	2	bus       	3	bus07       	36	not_alive	0	moves	1	artefact	0	n	0	0        	 	0.0	0	211.604024699947	211.704019800003	0.0999951000558212
115553	100	231	stimuli/movNat/hotspring/mn_hotspring10.jpg      	1	3	1	mn_hotspring10.jpg   	movNat   	3	hotspring 	21	hotspring10 	219	not_alive	0	moves	1	natural 	1	n	0	0        	 	0.0	0	211.754028099997	211.854022499989	0.0999943999922834
115703	100	232	stimuli/animals2/lemur/animal_lemur10.jpg        	1	3	1	animal_lemur10.jpg   	animals2 	1	lemur     	23	lemur10     	239	alive    	1	moves	1	natural 	1	n	0	0        	 	0.0	0	211.904032499995	212.004026199982	0.0999936999869533
115853	100	233	stimuli/plant2/fern/plant_fern05.jpg             	1	3	1	plant_fern05.jpg     	plant2   	7	fern      	14	fern05      	144	alive    	1	still	0	natural 	1	n	0	0        	 	0.0	0	212.054037099995	212.154028599965	0.0999914999702014
116003	100	234	stimuli/plant/grass/plant_grass03.jpg            	1	3	1	plant_grass03.jpg    	plant    	6	grass     	17	grass03     	172	alive    	1	still	0	natural 	1	n	0	0        	 	0.0	0	212.204041199991	212.30403509998	0.0999938999884762
116153	100	235	stimuli/nonmovNat/sand/nmn_sand10.jpg            	1	3	1	nmn_sand10.jpg       	nonmovNat	5	sand      	31	sand10      	319	not_alive	0	still	0	natural 	1	n	0	0        	 	0.0	0	212.354045899992	212.454078899987	0.100032999995165
116303	100	236	stimuli/animals/cat/animal_cat05.jpg             	1	3	1	animal_cat05.jpg     	animals  	0	cat       	6	cat05       	64	alive    	1	moves	1	natural 	1	n	0	0        	 	0.0	0	212.504050399992	212.604043599975	0.099993199983146
116453	100	237	stimuli/movArt/train/ma_train03.jpg              	1	3	1	ma_train03.jpg       	movArt   	2	train     	34	train03     	342	not_alive	0	moves	1	artefact	0	n	0	0        	 	0.0	0	212.654053599981	212.754046399961	0.0999927999801002
116603	100	238	stimuli/animals/eagle/animal_eagle10.jpg         	1	3	1	animal_eagle10.jpg   	animals  	0	eagle     	13	eagle10     	139	alive    	1	moves	1	natural 	1	n	0	0        	 	0.0	0	212.804056999972	212.904050099954	0.0999930999823846
116753	100	239	stimuli/animals2/bee/animal_bee02.jpg            	1	3	1	animal_bee02.jpg     	animals2 	1	bee       	0	bee02       	1	alive    	1	moves	1	natural 	1	n	0	0        	 	0.0	0	212.954061199969	213.054055099958	0.0999938999884762
120870	100	240	stimuli/plant2/palmtree/plant_palmtree01.jpg     	1	4	1	plant_palmtree01.jpg 	plant2   	7	palmtree  	27	palmtree01  	270	alive    	1	still	0	natural 	1	n	0	0        	 	0.0	0	217.070845399983	217.170874000003	0.100028600019868
121020	100	241	stimuli/nonmovNat/shell/nmn_shell04.jpg          	1	4	1	nmn_shell04.jpg      	nonmovNat	5	shell     	32	shell04     	323	not_alive	0	still	0	natural 	1	n	0	0        	 	0.0	0	217.220847799967	217.320842099958	0.099994299991522
121170	100	242	stimuli/animals/horse/animal_horse08.jpg         	1	4	1	animal_horse08.jpg   	animals  	0	horse     	20	horse08     	207	alive    	1	moves	1	natural 	1	n	0	0        	 	0.0	0	217.370851099957	217.470842099981	0.0999910000246018
121320	100	243	stimuli/movArt/boat/ma_boat10.jpg                	1	4	1	ma_boat10.jpg        	movArt   	2	boat      	2	boat10      	29	not_alive	0	moves	1	artefact	0	n	0	0        	 	0.0	0	217.520855199953	217.620851899963	0.0999967000097968
121470	100	244	stimuli/plant2/moss/plant_moss10.jpg             	1	4	1	plant_moss10.jpg     	plant2   	7	moss      	25	moss10      	259	alive    	1	still	0	natural 	1	n	0	0        	 	0.0	0	217.670854299969	217.770843999984	0.099989700014703
121620	100	245	stimuli/plant/vine/plant_vine09.jpg              	1	4	1	plant_vine09.jpg     	plant    	6	vine      	36	vine09      	368	alive    	1	still	0	natural 	1	n	0	0        	 	0.0	0	217.820856199949	217.920877399971	0.100021200021729
121770	100	246	stimuli/animals2/lemur/animal_lemur01.jpg        	1	4	1	animal_lemur01.jpg   	animals2 	1	lemur     	23	lemur01     	230	alive    	1	moves	1	natural 	1	n	0	0        	 	0.0	0	217.970863099967	218.070854899997	0.0999918000306934
121920	100	247	stimuli/animals/eagle/animal_eagle05.jpg         	1	4	1	animal_eagle05.jpg   	animals  	0	eagle     	13	eagle05     	134	alive    	1	moves	1	natural 	1	n	0	0        	 	0.0	0	218.120863799995	218.22086609999	0.10000229999423
122070	100	248	stimuli/movNat/waterfall/mn_waterfall01.jpg      	1	4	1	mn_waterfall01.jpg   	movNat   	3	waterfall 	37	waterfall01 	370	not_alive	0	moves	1	natural 	1	n	0	0        	 	0.0	0	218.270884199999	218.370868499973	0.0999842999735847
122220	100	249	stimuli/movNat/river/mn_river07.jpg              	1	4	1	mn_river07.jpg       	movNat   	3	river     	29	river07     	296	not_alive	0	moves	1	natural 	1	n	0	0        	 	0.0	0	218.420878999983	218.52090329997	0.100024299987126
122370	100	250	stimuli/plant/vine/plant_vine09.jpg              	1	4	1	plant_vine09.jpg     	plant    	6	vine      	36	vine09      	368	alive    	1	still	0	natural 	1	n	0	0        	 	0.0	0	218.570880999963	218.670889699948	0.100008699984755
122520	100	251	stimuli/plant2/lemontree/plant_lemontree10.jpg   	1	4	1	plant_lemontree10.jpg	plant2   	7	lemontree 	22	lemontree10 	229	alive    	1	still	0	natural 	1	n	0	0        	 	0.0	0	218.720884899958	218.820878700004	0.0999938000459224
122670	100	252	stimuli/movArt/helicopter/ma_helicopter10.jpg    	1	4	1	ma_helicopter10.jpg  	movArt   	2	helicopter	19	helicopter10	199	not_alive	0	moves	1	artefact	0	n	0	0        	 	0.0	0	218.870882899966	218.970877999964	0.0999950999976136
122820	100	253	stimuli/animals/eagle/animal_eagle02.jpg         	1	4	1	animal_eagle02.jpg   	animals  	0	eagle     	13	eagle02     	131	alive    	1	moves	1	natural 	1	n	0	0        	 	0.0	0	219.020906599995	219.120882599964	0.0999759999685921
122970	100	254	stimuli/movArt/train/ma_train02.jpg              	1	4	1	ma_train02.jpg       	movArt   	2	train     	34	train02     	341	not_alive	0	moves	1	artefact	0	n	1	0        	 	0.0	0	219.170907799969	219.27091229998	0.100004500010982
123120	100	255	stimuli/animals/cat/animal_cat05.jpg             	1	4	1	animal_cat05.jpg     	animals  	0	cat       	6	cat05       	64	alive    	1	moves	1	natural 	1	n	0	0        	 	0.0	0	219.320896099962	219.420895299991	0.099999200028833
123270	100	256	stimuli/nonmovNat/rock/nmn_rock03.jpg            	1	4	1	nmn_rock03.jpg       	nonmovNat	5	rock      	30	rock03      	302	not_alive	0	still	0	natural 	1	n	0	0        	 	0.0	0	219.470898899948	219.570908900001	0.100010000052862
123420	100	257	stimuli/plant/tree/plant_tree08.jpg              	1	4	1	plant_tree08.jpg     	plant    	6	tree      	35	tree08      	357	alive    	1	still	0	natural 	1	n	0	0        	 	0.0	0	219.620903999952	219.720897299994	0.0999933000421152
123570	100	258	stimuli/movNat/river/mn_river04.jpg              	1	4	1	mn_river04.jpg       	movNat   	3	river     	29	river04     	293	not_alive	0	moves	1	natural 	1	n	1	0        	 	0.0	0	219.770934799977	219.870903499948	0.0999686999712139
123720	100	259	stimuli/plant/grass/plant_grass01.jpg            	1	4	1	plant_grass01.jpg    	plant    	6	grass     	17	grass01     	170	alive    	1	still	0	natural 	1	n	0	0        	 	0.0	0	219.920911599998	220.020909199957	0.0999975999584422
123870	100	260	stimuli/nonmovArt/mug/nma_mug05.jpg              	1	4	1	nma_mug05.jpg        	nonmovArt	4	mug       	26	mug05       	264	not_alive	0	still	0	artefact	0	n	0	0        	 	0.0	0	220.070914199983	220.170910899993	0.0999967000097968
124020	100	261	stimuli/plant2/fern/plant_fern09.jpg             	1	4	1	plant_fern09.jpg     	plant2   	7	fern      	14	fern09      	148	alive    	1	still	0	natural 	1	n	0	0        	 	0.0	0	220.220935699996	220.320913899981	0.099978199985344
124170	100	262	stimuli/nonmovNat/rock/nmn_rock05.jpg            	1	4	1	nmn_rock05.jpg       	nonmovNat	5	rock      	30	rock05      	304	not_alive	0	still	0	natural 	1	n	0	1        	f	0.592125399969518	1	220.37094959995	220.470915599959	0.0999660000088625
124320	100	263	stimuli/plant2/clover/plant_clover04.jpg         	1	4	1	plant_clover04.jpg   	plant2   	7	clover    	9	clover04    	93	alive    	1	still	0	natural 	1	n	0	0        	 	0.0	0	220.520949399972	220.620922299975	0.0999729000031948
124470	100	264	stimuli/animals2/tiger/animal_tiger08.jpg        	1	4	1	animal_tiger08.jpg   	animals2 	1	tiger     	33	tiger08     	337	alive    	1	moves	1	natural 	1	n	0	0        	 	0.0	0	220.670932999987	220.770943499985	0.100010499998461
124620	100	265	stimuli/nonmovArt/headphones/nma_headphones02.jpg	1	4	1	nma_headphones02.jpg 	nonmovArt	4	headphones	18	headphones02	181	not_alive	0	still	0	artefact	0	n	0	0        	 	0.0	0	220.820934699965	220.920928499952	0.0999937999877147
124770	100	266	stimuli/movNat/waterfall/mn_waterfall04.jpg      	1	4	1	mn_waterfall04.jpg   	movNat   	3	waterfall 	37	waterfall04 	373	not_alive	0	moves	1	natural 	1	n	0	0        	 	0.0	0	220.970955699973	221.070933599956	0.0999778999830596
124920	100	267	stimuli/nonmovNat/shell/nmn_shell03.jpg          	1	4	1	nmn_shell03.jpg      	nonmovNat	5	shell     	32	shell03     	322	not_alive	0	still	0	natural 	1	n	0	0        	 	0.0	0	221.12095719995	221.220937199949	0.09997999999905
125070	100	268	stimuli/animals/cat/animal_cat06.jpg             	1	4	1	animal_cat06.jpg     	animals  	0	cat       	6	cat06       	65	alive    	1	moves	1	natural 	1	n	0	0        	 	0.0	0	221.270956999972	221.37094189995	0.0999848999781534
125220	100	269	stimuli/nonmovArt/headphones/nma_headphones02.jpg	1	4	1	nma_headphones02.jpg 	nonmovArt	4	headphones	18	headphones02	181	not_alive	0	still	0	artefact	0	n	0	0        	 	0.0	0	221.420968799968	221.520961699949	0.0999928999808617
125370	100	270	stimuli/nonmovArt/lock/nma_lock08.jpg            	1	4	1	nma_lock08.jpg       	nonmovArt	4	lock      	24	lock08      	247	not_alive	0	still	0	artefact	0	n	0	0        	 	0.0	0	221.570955799951	221.670947599981	0.0999918000306934
125520	100	271	stimuli/plant2/palmtree/plant_palmtree08.jpg     	1	4	1	plant_palmtree08.jpg 	plant2   	7	palmtree  	27	palmtree08  	277	alive    	1	still	0	natural 	1	n	0	0        	 	0.0	0	221.720959500002	221.820952799986	0.0999932999839075
125670	100	272	stimuli/animals/horse/animal_horse02.jpg         	1	4	1	animal_horse02.jpg   	animals  	0	horse     	20	horse02     	201	alive    	1	moves	1	natural 	1	n	0	0        	 	0.0	0	221.870982699969	221.970957099984	0.0999744000146166
125820	100	273	stimuli/nonmovNat/rock/nmn_rock01.jpg            	1	4	1	nmn_rock01.jpg       	nonmovNat	5	rock      	30	rock01      	300	not_alive	0	still	0	natural 	1	n	0	0        	 	0.0	0	222.0209684	222.120960299973	0.0999918999732472
125970	100	274	stimuli/plant/cactus/plant_cactus01.jpg          	1	4	1	plant_cactus01.jpg   	plant    	6	cactus    	4	cactus01    	40	alive    	1	still	0	natural 	1	n	0	0        	 	0.0	0	222.170969899977	222.270965399977	0.0999955000006594
126120	100	275	stimuli/nonmovArt/bench/nma_bench05.jpg          	1	4	1	nma_bench05.jpg      	nonmovArt	4	bench     	1	bench05     	14	not_alive	0	still	0	artefact	0	n	0	0        	 	0.0	0	222.32097629999	222.420969699975	0.0999933999846689
126270	100	276	stimuli/plant2/clover/plant_clover07.jpg         	1	4	1	plant_clover07.jpg   	plant2   	7	clover    	9	clover07    	96	alive    	1	still	0	natural 	1	n	0	0        	 	0.0	0	222.470979699981	222.570970699948	0.0999909999663942
126420	100	277	stimuli/nonmovNat/cliff/nmn_cliff08.jpg          	1	4	1	nmn_cliff08.jpg      	nonmovNat	5	cliff     	7	cliff08     	77	not_alive	0	still	0	natural 	1	n	0	0        	 	0.0	0	222.620984699985	222.720985399967	0.100000699982047
126570	100	278	stimuli/movArt/bus/ma_bus09.jpg                  	1	4	1	ma_bus09.jpg         	movArt   	2	bus       	3	bus09       	38	not_alive	0	moves	1	artefact	0	n	0	0        	 	0.0	0	222.770986599964	222.870980299951	0.0999936999869533
126720	100	279	stimuli/nonmovArt/clothespeg/nma_clothespeg03.jpg	1	4	1	nma_clothespeg03.jpg 	nonmovArt	4	clothespeg	8	clothespeg03	82	not_alive	0	still	0	artefact	0	n	0	0        	 	0.0	0	222.920990899962	223.021005099989	0.100014200026635
126870	100	280	stimuli/nonmovArt/mug/nma_mug08.jpg              	1	4	1	nma_mug08.jpg        	nonmovArt	4	mug       	26	mug08       	267	not_alive	0	still	0	artefact	0	n	0	0        	 	0.0	0	223.070997099974	223.170989199949	0.0999920999747701
127020	100	281	stimuli/movArt/car/ma_car09.jpg                  	1	4	1	ma_car09.jpg         	movArt   	2	car       	5	car09       	58	not_alive	0	moves	1	artefact	0	n	0	0        	 	0.0	0	223.220999699959	223.320994299953	0.0999945999938063
127170	100	282	stimuli/plant/tree/plant_tree01.jpg              	1	4	1	plant_tree01.jpg     	plant    	6	tree      	35	tree01      	350	alive    	1	still	0	natural 	1	n	0	0        	 	0.0	0	223.371002999949	223.47102279996	0.100019800011069
127320	100	283	stimuli/animals2/pigeon/animal_pigeon10.jpg      	1	4	1	animal_pigeon10.jpg  	animals2 	1	pigeon    	28	pigeon10    	289	alive    	1	moves	1	natural 	1	n	0	0        	 	0.0	0	223.521007999952	223.621000099985	0.0999921000329778
127470	100	284	stimuli/plant2/lemontree/plant_lemontree07.jpg   	1	4	1	plant_lemontree07.jpg	plant2   	7	lemontree 	22	lemontree07 	226	alive    	1	still	0	natural 	1	n	0	0        	 	0.0	0	223.671010499995	223.771003499976	0.0999929999816231
127620	100	285	stimuli/movArt/train/ma_train06.jpg              	1	4	1	ma_train06.jpg       	movArt   	2	train     	34	train06     	345	not_alive	0	moves	1	artefact	0	n	0	0        	 	0.0	0	223.821013799985	223.921026399999	0.100012600014452
127770	100	286	stimuli/movNat/waves/mn_waves07.jpg              	1	4	1	mn_waves07.jpg       	movNat   	3	waves     	38	waves07     	386	not_alive	0	moves	1	natural 	1	n	0	0        	 	0.0	0	223.971019599994	224.071028799983	0.100009199988563
127920	100	287	stimuli/movArt/helicopter/ma_helicopter07.jpg    	1	4	1	ma_helicopter07.jpg  	movArt   	2	helicopter	19	helicopter07	196	not_alive	0	moves	1	artefact	0	n	0	0        	 	0.0	0	224.121021399973	224.221039099968	0.100017699995078
128070	100	288	stimuli/animals2/lemur/animal_lemur06.jpg        	1	4	1	animal_lemur06.jpg   	animals2 	1	lemur     	23	lemur06     	235	alive    	1	moves	1	natural 	1	n	0	0        	 	0.0	0	224.271027599985	224.371021499974	0.0999938999884762
128220	100	289	stimuli/nonmovNat/crystal/nmn_crystal03.jpg      	1	4	1	nmn_crystal03.jpg    	nonmovNat	5	crystal   	10	crystal03   	102	not_alive	0	still	0	natural 	1	n	0	0        	 	0.0	0	224.421030399972	224.521024599962	0.0999941999907605
128370	100	290	stimuli/nonmovArt/clothespeg/nma_clothespeg01.jpg	1	4	1	nma_clothespeg01.jpg 	nonmovArt	4	clothespeg	8	clothespeg01	80	not_alive	0	still	0	artefact	0	n	0	0        	 	0.0	0	224.571034099965	224.671028799959	0.0999946999945678
128520	100	291	stimuli/animals/cat/animal_cat09.jpg             	1	4	1	animal_cat09.jpg     	animals  	0	cat       	6	cat09       	68	alive    	1	moves	1	natural 	1	n	0	0        	 	0.0	0	224.721039099968	224.821040899958	0.100001799990423
128670	100	292	stimuli/plant2/moss/plant_moss03.jpg             	1	4	1	plant_moss03.jpg     	plant2   	7	moss      	25	moss03      	252	alive    	1	still	0	natural 	1	n	0	0        	 	0.0	0	224.871041999955	224.971049099986	0.10000710003078
128820	100	293	stimuli/animals/dolphin/animal_dolphin07.jpg     	1	4	1	animal_dolphin07.jpg 	animals  	0	dolphin   	12	dolphin07   	126	alive    	1	moves	1	natural 	1	n	0	0        	 	0.0	0	225.021047099959	225.121040600003	0.099993500043638
128970	100	294	stimuli/animals2/whale/animal_whale09.jpg        	1	4	1	animal_whale09.jpg   	animals2 	1	whale     	39	whale09     	398	alive    	1	moves	1	natural 	1	n	0	0        	 	0.0	0	225.171050199948	225.271043699991	0.099993500043638
129120	100	295	stimuli/movArt/car/ma_car05.jpg                  	1	4	1	ma_car05.jpg         	movArt   	2	car       	5	car05       	54	not_alive	0	moves	1	artefact	0	n	0	0        	 	0.0	0	225.321087299963	225.42104679998	0.0999595000175759
129270	100	296	stimuli/nonmovNat/cliff/nmn_cliff02.jpg          	1	4	1	nmn_cliff02.jpg      	nonmovNat	5	cliff     	7	cliff02     	71	not_alive	0	still	0	natural 	1	n	0	0        	 	0.0	0	225.471058299998	225.571052399988	0.0999940999899991
129420	100	297	stimuli/plant/flower/plant_flower06.jpg          	1	4	1	plant_flower06.jpg   	plant    	6	flower    	16	flower06    	165	alive    	1	still	0	natural 	1	n	0	0        	 	0.0	0	225.621061999991	225.721057599992	0.0999956000014208
129570	100	298	stimuli/nonmovNat/cliff/nmn_cliff05.jpg          	1	4	1	nmn_cliff05.jpg      	nonmovNat	5	cliff     	7	cliff05     	74	not_alive	0	still	0	natural 	1	n	1	0        	 	0.0	0	225.771065699984	225.871060799982	0.0999950999976136
129720	100	299	stimuli/movNat/waves/mn_waves01.jpg              	1	4	1	mn_waves01.jpg       	movNat   	3	waves     	38	waves01     	380	not_alive	0	moves	1	natural 	1	n	0	0        	 	0.0	0	225.921085999988	226.021065699984	0.0999796999967657
129870	100	300	stimuli/nonmovNat/crystal/nmn_crystal05.jpg      	1	4	1	nmn_crystal05.jpg    	nonmovNat	5	crystal   	10	crystal05   	104	not_alive	0	still	0	natural 	1	n	0	0        	 	0.0	0	226.071104099974	226.171066399955	0.0999622999806888
130020	100	301	stimuli/nonmovArt/lock/nma_lock04.jpg            	1	4	1	nma_lock04.jpg       	nonmovArt	4	lock      	24	lock04      	243	not_alive	0	still	0	artefact	0	n	0	0        	 	0.0	0	226.221076899965	226.321077	0.100000100035686
130170	100	302	stimuli/movArt/bus/ma_bus09.jpg                  	1	4	1	ma_bus09.jpg         	movArt   	2	bus       	3	bus09       	38	not_alive	0	moves	1	artefact	0	n	0	0        	 	0.0	0	226.371099699987	226.471075999958	0.0999762999708764
130320	100	303	stimuli/animals/dolphin/animal_dolphin01.jpg     	1	4	1	animal_dolphin01.jpg 	animals  	0	dolphin   	12	dolphin01   	120	alive    	1	moves	1	natural 	1	n	0	0        	 	0.0	0	226.521085899963	226.62107949995	0.0999935999861918
130470	100	304	stimuli/movNat/waterfall/mn_waterfall07.jpg      	1	4	1	mn_waterfall07.jpg   	movNat   	3	waterfall 	37	waterfall07 	376	not_alive	0	moves	1	natural 	1	n	0	0        	 	0.0	0	226.6711106	226.771085699962	0.099975099961739
130620	100	305	stimuli/plant/tree/plant_tree06.jpg              	1	4	1	plant_tree06.jpg     	plant    	6	tree      	35	tree06      	355	alive    	1	still	0	natural 	1	n	0	0        	 	0.0	0	226.821109699958	226.921104999958	0.0999952999991365
130770	100	306	stimuli/animals2/lemur/animal_lemur04.jpg        	1	4	1	animal_lemur04.jpg   	animals2 	1	lemur     	23	lemur04     	233	alive    	1	moves	1	natural 	1	n	0	0        	 	0.0	0	226.971098399954	227.071093499952	0.0999950999976136
130920	100	307	stimuli/animals/horse/animal_horse03.jpg         	1	4	1	animal_horse03.jpg   	animals  	0	horse     	20	horse03     	202	alive    	1	moves	1	natural 	1	n	0	0        	 	0.0	0	227.12110379996	227.221096199995	0.0999924000352621
131070	100	308	stimuli/movArt/helicopter/ma_helicopter04.jpg    	1	4	1	ma_helicopter04.jpg  	movArt   	2	helicopter	19	helicopter04	193	not_alive	0	moves	1	artefact	0	n	0	0        	 	0.0	0	227.271106599947	227.371099199983	0.099992600036785
131220	100	309	stimuli/movArt/bus/ma_bus10.jpg                  	1	4	1	ma_bus10.jpg         	movArt   	2	bus       	3	bus10       	39	not_alive	0	moves	1	artefact	0	n	0	0        	 	0.0	0	227.421118899947	227.52110339998	0.0999845000333153
131370	100	310	stimuli/animals/eagle/animal_eagle04.jpg         	1	4	1	animal_eagle04.jpg   	animals  	0	eagle     	13	eagle04     	133	alive    	1	moves	1	natural 	1	n	0	0        	 	0.0	0	227.571113299986	227.671107299975	0.0999939999892376
131520	100	311	stimuli/nonmovArt/mug/nma_mug09.jpg              	1	4	1	nma_mug09.jpg        	nonmovArt	4	mug       	26	mug09       	268	not_alive	0	still	0	artefact	0	n	0	0        	 	0.0	0	227.721118499991	227.821126799972	0.10000829998171
131670	100	312	stimuli/plant/grass/plant_grass10.jpg            	1	4	1	plant_grass10.jpg    	plant    	6	grass     	17	grass10     	179	alive    	1	still	0	natural 	1	n	0	0        	 	0.0	0	227.871124900004	227.971136499953	0.10001159994863
131820	100	313	stimuli/nonmovArt/lock/nma_lock09.jpg            	1	4	1	nma_lock09.jpg       	nonmovArt	4	lock      	24	lock09      	248	not_alive	0	still	0	artefact	0	n	0	0        	 	0.0	0	228.021132199967	228.121125699952	0.0999934999854304
131970	100	314	stimuli/plant2/fern/plant_fern09.jpg             	1	4	1	plant_fern09.jpg     	plant2   	7	fern      	14	fern09      	148	alive    	1	still	0	natural 	1	n	0	0        	 	0.0	0	228.17113589996	228.271140699973	0.100004800013267
132120	100	315	stimuli/movNat/hotspring/mn_hotspring03.jpg      	1	4	1	mn_hotspring03.jpg   	movNat   	3	hotspring 	21	hotspring03 	212	not_alive	0	moves	1	natural 	1	n	0	0        	 	0.0	0	228.321143299981	228.421134699951	0.09999139996944
132270	100	316	stimuli/animals/dog/animal_dog03.jpg             	1	4	1	animal_dog03.jpg     	animals  	0	dog       	11	dog03       	112	alive    	1	moves	1	natural 	1	n	0	0        	 	0.0	0	228.471142399998	228.57113679999	0.0999943999922834
132420	100	317	stimuli/nonmovNat/sand/nmn_sand07.jpg            	1	4	1	nmn_sand07.jpg       	nonmovNat	5	sand      	31	sand07      	316	not_alive	0	still	0	natural 	1	n	0	0        	 	0.0	0	228.621148699953	228.721143399947	0.0999946999945678
132570	100	318	stimuli/movNat/fire/mn_fire06.jpg                	1	4	1	mn_fire06.jpg        	movNat   	3	fire      	15	fire06      	155	not_alive	0	moves	1	natural 	1	n	0	0        	 	0.0	0	228.7711518	228.871160899987	0.100009099987801
132721	100	319	stimuli/movArt/train/ma_train05.jpg              	1	4	1	ma_train05.jpg       	movArt   	2	train     	34	train05     	344	not_alive	0	moves	1	artefact	0	n	0	0        	 	0.0	0	228.921151099959	229.021168299951	0.100017199991271
134371	100	320	stimuli/animals/dolphin/animal_dolphin06.jpg     	1	5	1	animal_dolphin06.jpg 	animals  	0	dolphin   	12	dolphin06   	125	alive    	1	moves	1	natural 	1	n	0	0        	 	0.0	0	230.571203599975	230.671192999987	0.0999894000124186
134521	100	321	stimuli/plant/vine/plant_vine09.jpg              	1	5	1	plant_vine09.jpg     	plant    	6	vine      	36	vine09      	368	alive    	1	still	0	natural 	1	n	0	0        	 	0.0	0	230.721203399997	230.821202099964	0.0999986999668181
134671	100	322	stimuli/plant2/fern/plant_fern10.jpg             	1	5	1	plant_fern10.jpg     	plant2   	7	fern      	14	fern10      	149	alive    	1	still	0	natural 	1	n	0	0        	 	0.0	0	230.87120309996	230.971194599988	0.0999915000284091
134821	100	323	stimuli/animals2/bee/animal_bee09.jpg            	1	5	1	animal_bee09.jpg     	animals2 	1	bee       	0	bee09       	8	alive    	1	moves	1	natural 	1	n	0	0        	 	0.0	0	231.021223699965	231.121215099993	0.0999914000276476
134971	100	324	stimuli/animals2/pigeon/animal_pigeon06.jpg      	1	5	1	animal_pigeon06.jpg  	animals2 	1	pigeon    	28	pigeon06    	285	alive    	1	moves	1	natural 	1	n	0	0        	 	0.0	0	231.171209699998	231.271206999954	0.0999972999561578
135121	100	325	stimuli/movNat/river/mn_river01.jpg              	1	5	1	mn_river01.jpg       	movNat   	3	river     	29	river01     	290	not_alive	0	moves	1	natural 	1	n	0	0        	 	0.0	0	231.32121559995	231.421207599982	0.0999920000322163
135271	100	326	stimuli/animals2/tiger/animal_tiger03.jpg        	1	5	1	animal_tiger03.jpg   	animals2 	1	tiger     	33	tiger03     	332	alive    	1	moves	1	natural 	1	n	0	0        	 	0.0	0	231.471215599973	231.571210399969	0.0999947999953292
135421	100	327	stimuli/nonmovArt/bench/nma_bench06.jpg          	1	5	1	nma_bench06.jpg      	nonmovArt	4	bench     	1	bench06     	15	not_alive	0	still	0	artefact	0	n	0	0        	 	0.0	0	231.621220499976	231.721235599951	0.10001509997528
135571	100	328	stimuli/movArt/car/ma_car06.jpg                  	1	5	1	ma_car06.jpg         	movArt   	2	car       	5	car06       	55	not_alive	0	moves	1	artefact	0	n	0	0        	 	0.0	0	231.77124469995	231.871240199951	0.0999955000006594
135721	100	329	stimuli/plant2/palmtree/plant_palmtree04.jpg     	1	5	1	plant_palmtree04.jpg 	plant2   	7	palmtree  	27	palmtree04  	273	alive    	1	still	0	natural 	1	n	0	0        	 	0.0	0	231.921250899963	232.02124219999	0.0999913000268862
135871	100	330	stimuli/movNat/hotspring/mn_hotspring06.jpg      	1	5	1	mn_hotspring06.jpg   	movNat   	3	hotspring 	21	hotspring06 	215	not_alive	0	moves	1	natural 	1	n	0	0        	 	0.0	0	232.071251999994	232.17124549998	0.0999934999854304
136021	100	331	stimuli/animals2/bee/animal_bee02.jpg            	1	5	1	animal_bee02.jpg     	animals2 	1	bee       	0	bee02       	1	alive    	1	moves	1	natural 	1	n	0	0        	 	0.0	0	232.221254099975	232.321265299979	0.100011200003792
136171	100	332	stimuli/nonmovNat/shell/nmn_shell05.jpg          	1	5	1	nmn_shell05.jpg      	nonmovNat	5	shell     	32	shell05     	324	not_alive	0	still	0	natural 	1	n	0	0        	 	0.0	0	232.371265299967	232.471243699954	0.0999783999868669
136321	100	333	stimuli/movNat/waves/mn_waves07.jpg              	1	5	1	mn_waves07.jpg       	movNat   	3	waves     	38	waves07     	386	not_alive	0	moves	1	natural 	1	n	0	0        	 	0.0	0	232.52126519999	232.62124529999	0.0999800999998115
136471	100	334	stimuli/nonmovNat/sand/nmn_sand08.jpg            	1	5	1	nmn_sand08.jpg       	nonmovNat	5	sand      	31	sand08      	317	not_alive	0	still	0	natural 	1	n	0	0        	 	0.0	0	232.671267299971	232.771259799949	0.0999924999778159
136621	100	335	stimuli/movNat/hotspring/mn_hotspring03.jpg      	1	5	1	mn_hotspring03.jpg   	movNat   	3	hotspring 	21	hotspring03 	212	not_alive	0	moves	1	natural 	1	n	0	0        	 	0.0	0	232.821276899951	232.921266499965	0.0999896000139415
136771	100	336	stimuli/plant/grass/plant_grass09.jpg            	1	5	1	plant_grass09.jpg    	plant    	6	grass     	17	grass09     	178	alive    	1	still	0	natural 	1	n	1	0        	 	0.0	0	232.97127499996	233.071300199954	0.100025199993979
136921	100	337	stimuli/animals/dog/animal_dog06.jpg             	1	5	1	animal_dog06.jpg     	animals  	0	dog       	11	dog06       	115	alive    	1	moves	1	natural 	1	n	0	0        	 	0.0	0	233.121280099964	233.221259099955	0.0999789999914356
137071	100	338	stimuli/movNat/fire/mn_fire07.jpg                	1	5	1	mn_fire07.jpg        	movNat   	3	fire      	15	fire07      	156	not_alive	0	moves	1	natural 	1	n	0	1        	f	0.391998500039335	1	233.271283599955	233.371277099999	0.099993500043638
137221	100	339	stimuli/animals2/whale/animal_whale06.jpg        	1	5	1	animal_whale06.jpg   	animals2 	1	whale     	39	whale06     	395	alive    	1	moves	1	natural 	1	n	1	0        	 	0.0	0	233.421290199971	233.52129579999	0.100005600019358
137371	100	340	stimuli/animals2/bee/animal_bee03.jpg            	1	5	1	animal_bee03.jpg     	animals2 	1	bee       	0	bee03       	2	alive    	1	moves	1	natural 	1	n	0	0        	 	0.0	0	233.571290799999	233.671286700002	0.0999959000037052
137521	100	341	stimuli/animals2/pigeon/animal_pigeon04.jpg      	1	5	1	animal_pigeon04.jpg  	animals2 	1	pigeon    	28	pigeon04    	283	alive    	1	moves	1	natural 	1	n	0	0        	 	0.0	0	233.721297499957	233.821290799999	0.0999933000421152
137671	100	342	stimuli/plant2/moss/plant_moss01.jpg             	1	5	1	plant_moss01.jpg     	plant2   	7	moss      	25	moss01      	250	alive    	1	still	0	natural 	1	n	0	0        	 	0.0	0	233.871298099984	233.971298699966	0.100000599981286
137821	100	343	stimuli/nonmovArt/headphones/nma_headphones10.jpg	1	5	1	nma_headphones10.jpg 	nonmovArt	4	headphones	18	headphones10	189	not_alive	0	still	0	artefact	0	n	0	0        	 	0.0	0	234.021302499983	234.121296999976	0.0999944999930449
137971	100	344	stimuli/nonmovNat/crystal/nmn_crystal01.jpg      	1	5	1	nmn_crystal01.jpg    	nonmovNat	5	crystal   	10	crystal01   	100	not_alive	0	still	0	natural 	1	n	0	0        	 	0.0	0	234.171321099973	234.271306299954	0.0999851999804378
138121	100	345	stimuli/movArt/boat/ma_boat07.jpg                	1	5	1	ma_boat07.jpg        	movArt   	2	boat      	2	boat07      	26	not_alive	0	moves	1	artefact	0	n	0	0        	 	0.0	0	234.321301499964	234.421310899954	0.100009399990086
138271	100	346	stimuli/movArt/boat/ma_boat02.jpg                	1	5	1	ma_boat02.jpg        	movArt   	2	boat      	2	boat02      	21	not_alive	0	moves	1	artefact	0	n	0	0        	 	0.0	0	234.47131319996	234.57132029999	0.10000710003078
138421	100	347	stimuli/nonmovNat/sand/nmn_sand03.jpg            	1	5	1	nmn_sand03.jpg       	nonmovNat	5	sand      	31	sand03      	312	not_alive	0	still	0	natural 	1	n	0	0        	 	0.0	0	234.62131909997	234.721330599976	0.100011500006076
138571	100	348	stimuli/animals/dog/animal_dog07.jpg             	1	5	1	animal_dog07.jpg     	animals  	0	dog       	11	dog07       	116	alive    	1	moves	1	natural 	1	n	0	0        	 	0.0	0	234.77132369997	234.871317599958	0.0999938999884762
138721	100	349	stimuli/animals2/tiger/animal_tiger06.jpg        	1	5	1	animal_tiger06.jpg   	animals2 	1	tiger     	33	tiger06     	335	alive    	1	moves	1	natural 	1	n	1	0        	 	0.0	0	234.921341599955	235.021321399952	0.0999797999975272
138871	100	350	stimuli/plant/flower/plant_flower09.jpg          	1	5	1	plant_flower09.jpg   	plant    	6	flower    	16	flower09    	168	alive    	1	still	0	natural 	1	n	0	0        	 	0.0	0	235.071316399961	235.171340699948	0.100024299987126
139021	100	351	stimuli/plant/cactus/plant_cactus06.jpg          	1	5	1	plant_cactus06.jpg   	plant    	6	cactus    	4	cactus06    	45	alive    	1	still	0	natural 	1	n	0	1        	f	0.392015499994159	1	235.221335299953	235.321328699996	0.0999934000428766
139171	100	352	stimuli/plant/cactus/plant_cactus08.jpg          	1	5	1	plant_cactus08.jpg   	plant    	6	cactus    	4	cactus08    	47	alive    	1	still	0	natural 	1	n	0	0        	 	0.0	0	235.371337499993	235.471335799957	0.0999982999637723
139321	100	353	stimuli/movNat/fire/mn_fire06.jpg                	1	5	1	mn_fire06.jpg        	movNat   	3	fire      	15	fire06      	155	not_alive	0	moves	1	natural 	1	n	0	0        	 	0.0	0	235.521345999965	235.621338800003	0.0999928000383079
139471	100	354	stimuli/plant/flower/plant_flower09.jpg          	1	5	1	plant_flower09.jpg   	plant    	6	flower    	16	flower09    	168	alive    	1	still	0	natural 	1	n	0	0        	 	0.0	0	235.671345799987	235.771340799984	0.0999949999968521
139621	100	355	stimuli/plant2/lemontree/plant_lemontree04.jpg   	1	5	1	plant_lemontree04.jpg	plant2   	7	lemontree 	22	lemontree04 	223	alive    	1	still	0	natural 	1	n	0	0        	 	0.0	0	235.821330699953	235.921357299958	0.100026600004639
139771	100	356	stimuli/nonmovArt/clothespeg/nma_clothespeg05.jpg	1	5	1	nma_clothespeg05.jpg 	nonmovArt	4	clothespeg	8	clothespeg05	84	not_alive	0	still	0	artefact	0	n	0	0        	 	0.0	0	235.971355199988	236.071346199955	0.0999909999663942
139921	100	357	stimuli/nonmovArt/bench/nma_bench02.jpg          	1	5	1	nma_bench02.jpg      	nonmovArt	4	bench     	1	bench02     	11	not_alive	0	still	0	artefact	0	n	0	0        	 	0.0	0	236.121356699965	236.22136539995	0.100008699984755
140071	100	358	stimuli/animals2/whale/animal_whale01.jpg        	1	5	1	animal_whale01.jpg   	animals2 	1	whale     	39	whale01     	390	alive    	1	moves	1	natural 	1	n	0	0        	 	0.0	0	236.27136329998	236.371358899982	0.0999956000014208
140221	100	359	stimuli/plant2/clover/plant_clover06.jpg         	1	5	1	plant_clover06.jpg   	plant2   	7	clover    	9	clover06    	95	alive    	1	still	0	natural 	1	n	0	0        	 	0.0	0	236.421367299976	236.521360099956	0.0999927999801002
140371	100	360	stimuli/nonmovNat/sand/nmn_sand03.jpg            	1	5	1	nmn_sand03.jpg       	nonmovNat	5	sand      	31	sand03      	312	not_alive	0	still	0	natural 	1	n	0	0        	 	0.0	0	236.57138509996	236.671362199995	0.0999771000351757
140521	100	361	stimuli/plant2/clover/plant_clover06.jpg         	1	5	1	plant_clover06.jpg   	plant2   	7	clover    	9	clover06    	95	alive    	1	still	0	natural 	1	n	0	0        	 	0.0	0	236.721379399998	236.821370999969	0.0999915999709628
140671	100	362	stimuli/movArt/bus/ma_bus10.jpg                  	1	5	1	ma_bus10.jpg         	movArt   	2	bus       	3	bus10       	39	not_alive	0	moves	1	artefact	0	n	0	0        	 	0.0	0	236.871391099994	236.971374199958	0.0999830999644473
140821	100	363	stimuli/animals/dolphin/animal_dolphin04.jpg     	1	5	1	animal_dolphin04.jpg 	animals  	0	dolphin   	12	dolphin04   	123	alive    	1	moves	1	natural 	1	n	0	0        	 	0.0	0	237.021393099974	237.121377899952	0.099984799977392
140971	100	364	stimuli/movArt/helicopter/ma_helicopter05.jpg    	1	5	1	ma_helicopter05.jpg  	movArt   	2	helicopter	19	helicopter05	194	not_alive	0	moves	1	artefact	0	n	0	0        	 	0.0	0	237.171387999959	237.271388299996	0.100000300037209
141121	100	365	stimuli/animals/dog/animal_dog03.jpg             	1	5	1	animal_dog03.jpg     	animals  	0	dog       	11	dog03       	112	alive    	1	moves	1	natural 	1	n	0	0        	 	0.0	0	237.321391899954	237.421385499998	0.0999936000443995
141271	100	366	stimuli/animals2/whale/animal_whale01.jpg        	1	5	1	animal_whale01.jpg   	animals2 	1	whale     	39	whale01     	390	alive    	1	moves	1	natural 	1	n	0	0        	 	0.0	0	237.471393799991	237.571389299992	0.0999955000006594
141421	100	367	stimuli/nonmovArt/clothespeg/nma_clothespeg06.jpg	1	5	1	nma_clothespeg06.jpg 	nonmovArt	4	clothespeg	8	clothespeg06	85	not_alive	0	still	0	artefact	0	n	0	0        	 	0.0	0	237.621398799994	237.721405799966	0.100006999971811
141571	100	368	stimuli/plant2/palmtree/plant_palmtree02.jpg     	1	5	1	plant_palmtree02.jpg 	plant2   	7	palmtree  	27	palmtree02  	271	alive    	1	still	0	natural 	1	n	0	0        	 	0.0	0	237.771416699979	237.871396499977	0.0999797999975272
141721	100	369	stimuli/animals2/tiger/animal_tiger06.jpg        	1	5	1	animal_tiger06.jpg   	animals2 	1	tiger     	33	tiger06     	335	alive    	1	moves	1	natural 	1	n	0	0        	 	0.0	0	237.921409899951	238.021401799982	0.0999919000314549
141871	100	370	stimuli/movNat/river/mn_river10.jpg              	1	5	1	mn_river10.jpg       	movNat   	3	river     	29	river10     	299	not_alive	0	moves	1	natural 	1	n	0	0        	 	0.0	0	238.071411899989	238.17140469997	0.0999927999801002
142021	100	371	stimuli/nonmovNat/rock/nmn_rock08.jpg            	1	5	1	nmn_rock08.jpg       	nonmovNat	5	rock      	30	rock08      	307	not_alive	0	still	0	natural 	1	n	0	0        	 	0.0	0	238.221427099954	238.321411699988	0.0999846000340767
142171	100	372	stimuli/movArt/bus/ma_bus03.jpg                  	1	5	1	ma_bus03.jpg         	movArt   	2	bus       	3	bus03       	32	not_alive	0	moves	1	artefact	0	n	0	0        	 	0.0	0	238.371418699971	238.471412999963	0.099994299991522
142321	100	373	stimuli/nonmovNat/shell/nmn_shell08.jpg          	1	5	1	nmn_shell08.jpg      	nonmovNat	5	shell     	32	shell08     	327	not_alive	0	still	0	natural 	1	n	0	0        	 	0.0	0	238.521421099955	238.62142359995	0.100002499995753
142471	100	374	stimuli/nonmovArt/mug/nma_mug07.jpg              	1	5	1	nma_mug07.jpg        	nonmovArt	4	mug       	26	mug07       	266	not_alive	0	still	0	artefact	0	n	0	0        	 	0.0	0	238.67142499995	238.771417999989	0.0999930000398308
142621	100	375	stimuli/animals/dolphin/animal_dolphin02.jpg     	1	5	1	animal_dolphin02.jpg 	animals  	0	dolphin   	12	dolphin02   	121	alive    	1	moves	1	natural 	1	n	0	0        	 	0.0	0	238.821403399983	238.921437099983	0.100033700000495
142771	100	376	stimuli/movNat/waves/mn_waves08.jpg              	1	5	1	mn_waves08.jpg       	movNat   	3	waves     	38	waves08     	387	not_alive	0	moves	1	natural 	1	n	0	0        	 	0.0	0	238.971455499995	239.071426699986	0.0999711999902502
142921	100	377	stimuli/movArt/boat/ma_boat01.jpg                	1	5	1	ma_boat01.jpg        	movArt   	2	boat      	2	boat01      	20	not_alive	0	moves	1	artefact	0	n	0	0        	 	0.0	0	239.121438699949	239.221429999976	0.0999913000268862
143071	100	378	stimuli/movNat/fire/mn_fire04.jpg                	1	5	1	mn_fire04.jpg        	movNat   	3	fire      	15	fire04      	153	not_alive	0	moves	1	natural 	1	n	0	0        	 	0.0	0	239.27144599997	239.371453999949	0.100007999979425
143221	100	379	stimuli/nonmovArt/clothespeg/nma_clothespeg08.jpg	1	5	1	nma_clothespeg08.jpg 	nonmovArt	4	clothespeg	8	clothespeg08	87	not_alive	0	still	0	artefact	0	n	1	0        	 	0.0	0	239.421444099979	239.521418299992	0.0999742000130936
143371	100	380	stimuli/movNat/fire/mn_fire09.jpg                	1	5	1	mn_fire09.jpg        	movNat   	3	fire      	15	fire09      	158	not_alive	0	moves	1	natural 	1	n	0	0        	 	0.0	0	239.571449899988	239.671442799969	0.0999928999808617
143521	100	381	stimuli/plant/flower/plant_flower05.jpg          	1	5	1	plant_flower05.jpg   	plant    	6	flower    	16	flower05    	164	alive    	1	still	0	natural 	1	n	0	1        	f	0.300955299986526	1	239.721455299994	239.821452899952	0.0999975999584422
143671	100	382	stimuli/movArt/helicopter/ma_helicopter06.jpg    	1	5	1	ma_helicopter06.jpg  	movArt   	2	helicopter	19	helicopter06	195	not_alive	0	moves	1	artefact	0	n	0	0        	 	0.0	0	239.871440899966	239.971430699981	0.0999898000154644
143821	100	383	stimuli/plant/cactus/plant_cactus02.jpg          	1	5	1	plant_cactus02.jpg   	plant    	6	cactus    	4	cactus02    	41	alive    	1	still	0	natural 	1	n	0	0        	 	0.0	0	240.021444199956	240.121436699992	0.0999925000360236
143971	100	384	stimuli/plant/tree/plant_tree09.jpg              	1	5	1	plant_tree09.jpg     	plant    	6	tree      	35	tree09      	358	alive    	1	still	0	natural 	1	n	0	0        	 	0.0	0	240.17144559999	240.271439899981	0.099994299991522
144121	100	385	stimuli/movArt/car/ma_car08.jpg                  	1	5	1	ma_car08.jpg         	movArt   	2	car       	5	car08       	57	not_alive	0	moves	1	artefact	0	n	0	0        	 	0.0	0	240.321450699994	240.421445499989	0.0999947999953292
144271	100	386	stimuli/animals/cat/animal_cat03.jpg             	1	5	1	animal_cat03.jpg     	animals  	0	cat       	6	cat03       	62	alive    	1	moves	1	natural 	1	n	0	0        	 	0.0	0	240.471455099992	240.571472999989	0.100017899996601
144421	100	387	stimuli/nonmovNat/cliff/nmn_cliff09.jpg          	1	5	1	nmn_cliff09.jpg      	nonmovNat	5	cliff     	7	cliff09     	78	not_alive	0	still	0	natural 	1	n	0	0        	 	0.0	0	240.621459599992	240.721452899976	0.0999932999839075
144571	100	388	stimuli/animals/dolphin/animal_dolphin07.jpg     	1	5	1	animal_dolphin07.jpg 	animals  	0	dolphin   	12	dolphin07   	126	alive    	1	moves	1	natural 	1	n	0	0        	 	0.0	0	240.771464399993	240.871456399967	0.0999919999740086
144721	100	389	stimuli/animals2/pigeon/animal_pigeon04.jpg      	1	5	1	animal_pigeon04.jpg  	animals2 	1	pigeon    	28	pigeon04    	283	alive    	1	moves	1	natural 	1	n	0	0        	 	0.0	0	240.921484699997	241.021460399963	0.0999756999663077
144871	100	390	stimuli/nonmovArt/bench/nma_bench08.jpg          	1	5	1	nma_bench08.jpg      	nonmovArt	4	bench     	1	bench08     	17	not_alive	0	still	0	artefact	0	n	0	0        	 	0.0	0	241.071469299961	241.171462999948	0.0999936999869533
145021	100	391	stimuli/nonmovNat/sand/nmn_sand07.jpg            	1	5	1	nmn_sand07.jpg       	nonmovNat	5	sand      	31	sand07      	316	not_alive	0	still	0	natural 	1	n	0	0        	 	0.0	0	241.221475399972	241.321468799957	0.0999933999846689
145171	100	392	stimuli/plant/tree/plant_tree10.jpg              	1	5	1	plant_tree10.jpg     	plant    	6	tree      	35	tree10      	359	alive    	1	still	0	natural 	1	n	0	0        	 	0.0	0	241.371478899964	241.4714943	0.100015400035772
145321	100	393	stimuli/plant2/moss/plant_moss08.jpg             	1	5	1	plant_moss08.jpg     	plant2   	7	moss      	25	moss08      	257	alive    	1	still	0	natural 	1	n	0	0        	 	0.0	0	241.521485399979	241.621475399996	0.0999900000169873
145471	100	394	stimuli/animals2/lemur/animal_lemur06.jpg        	1	5	1	animal_lemur06.jpg   	animals2 	1	lemur     	23	lemur06     	235	alive    	1	moves	1	natural 	1	n	0	0        	 	0.0	0	241.671486899955	241.771480399999	0.099993500043638
145621	100	395	stimuli/plant/tree/plant_tree10.jpg              	1	5	1	plant_tree10.jpg     	plant    	6	tree      	35	tree10      	359	alive    	1	still	0	natural 	1	n	0	0        	 	0.0	0	241.821506399952	241.921483599988	0.0999772000359371
145771	100	396	stimuli/movNat/waterfall/mn_waterfall09.jpg      	1	5	1	mn_waterfall09.jpg   	movNat   	3	waterfall 	37	waterfall09 	378	not_alive	0	moves	1	natural 	1	n	0	0        	 	0.0	0	241.971496399958	242.071492399962	0.0999960000044666
145921	100	397	stimuli/plant/cactus/plant_cactus10.jpg          	1	5	1	plant_cactus10.jpg   	plant    	6	cactus    	4	cactus10    	49	alive    	1	still	0	natural 	1	n	0	0        	 	0.0	0	242.121500199952	242.221494800004	0.099994600052014
146071	100	398	stimuli/animals2/tiger/animal_tiger05.jpg        	1	5	1	animal_tiger05.jpg   	animals2 	1	tiger     	33	tiger05     	334	alive    	1	moves	1	natural 	1	n	0	0        	 	0.0	0	242.271501799987	242.371495999978	0.0999941999907605
146221	100	399	stimuli/plant/cactus/plant_cactus04.jpg          	1	5	1	plant_cactus04.jpg   	plant    	6	cactus    	4	cactus04    	43	alive    	1	still	0	natural 	1	n	0	0        	 	0.0	0	242.421507599996	242.521499699971	0.0999920999747701
147854	100	400	stimuli/animals2/pigeon/animal_pigeon08.jpg      	1	6	1	animal_pigeon08.jpg  	animals2 	1	pigeon    	28	pigeon08    	287	alive    	1	moves	1	natural 	1	n	0	0        	 	0.0	0	244.054907799989	244.154903199989	0.0999953999998979
148004	100	401	stimuli/movNat/hotspring/mn_hotspring05.jpg      	1	6	1	mn_hotspring05.jpg   	movNat   	3	hotspring 	21	hotspring05 	214	not_alive	0	moves	1	natural 	1	n	0	0        	 	0.0	0	244.204885699961	244.304891599982	0.100005900021642
148154	100	402	stimuli/movArt/train/ma_train07.jpg              	1	6	1	ma_train07.jpg       	movArt   	2	train     	34	train07     	346	not_alive	0	moves	1	artefact	0	n	0	0        	 	0.0	0	244.354926200002	244.454884099949	0.0999578999471851
148304	100	403	stimuli/plant2/palmtree/plant_palmtree06.jpg     	1	6	1	plant_palmtree06.jpg 	plant2   	7	palmtree  	27	palmtree06  	275	alive    	1	still	0	natural 	1	n	0	0        	 	0.0	0	244.504894599959	244.604889099952	0.0999944999930449
148454	100	404	stimuli/plant2/lemontree/plant_lemontree07.jpg   	1	6	1	plant_lemontree07.jpg	plant2   	7	lemontree 	22	lemontree07 	226	alive    	1	still	0	natural 	1	n	0	0        	 	0.0	0	244.654910299985	244.75489339995	0.0999830999644473
148604	100	405	stimuli/animals2/lemur/animal_lemur06.jpg        	1	6	1	animal_lemur06.jpg   	animals2 	1	lemur     	23	lemur06     	235	alive    	1	moves	1	natural 	1	n	0	0        	 	0.0	0	244.804929399979	244.904918699991	0.0999893000116572
148754	100	406	stimuli/nonmovArt/mug/nma_mug07.jpg              	1	6	1	nma_mug07.jpg        	nonmovArt	4	mug       	26	mug07       	266	not_alive	0	still	0	artefact	0	n	0	0        	 	0.0	0	244.954906300001	245.054902799951	0.0999964999500662
148904	100	407	stimuli/animals2/bee/animal_bee10.jpg            	1	6	1	animal_bee10.jpg     	animals2 	1	bee       	0	bee10       	9	alive    	1	moves	1	natural 	1	n	0	0        	 	0.0	0	245.104910399998	245.204903699982	0.0999932999839075
149054	100	408	stimuli/nonmovArt/mug/nma_mug02.jpg              	1	6	1	nma_mug02.jpg        	nonmovArt	4	mug       	26	mug02       	261	not_alive	0	still	0	artefact	0	n	0	0        	 	0.0	0	245.254917799961	245.354908399982	0.099990600021556
149204	100	409	stimuli/movNat/river/mn_river09.jpg              	1	6	1	mn_river09.jpg       	movNat   	3	river     	29	river09     	298	not_alive	0	moves	1	natural 	1	n	0	0        	 	0.0	0	245.404923999973	245.504912299977	0.0999883000040427
149354	100	410	stimuli/animals2/lemur/animal_lemur03.jpg        	1	6	1	animal_lemur03.jpg   	animals2 	1	lemur     	23	lemur03     	232	alive    	1	moves	1	natural 	1	n	0	0        	 	0.0	0	245.554935499968	245.654915199964	0.0999796999967657
149504	100	411	stimuli/nonmovNat/rock/nmn_rock08.jpg            	1	6	1	nmn_rock08.jpg       	nonmovNat	5	rock      	30	rock08      	307	not_alive	0	still	0	natural 	1	n	0	0        	 	0.0	0	245.70492779999	245.804917300004	0.0999895000131801
149654	100	412	stimuli/nonmovNat/cliff/nmn_cliff02.jpg          	1	6	1	nmn_cliff02.jpg      	nonmovNat	5	cliff     	7	cliff02     	71	not_alive	0	still	0	natural 	1	n	0	0        	 	0.0	0	245.854931199981	245.95492639998	0.099995199998375
149804	100	413	stimuli/nonmovArt/headphones/nma_headphones09.jpg	1	6	1	nma_headphones09.jpg 	nonmovArt	4	headphones	18	headphones09	188	not_alive	0	still	0	artefact	0	n	0	0        	 	0.0	0	246.004933699965	246.104927899956	0.0999941999907605
