onset	duration	eventnumber	stimulus_file	blockno	trialno	is_faststream	stim	stim_category	category_number	exemplar	exemplar_number	image_name	image_number	aliveness	aliveness_bin	movement	movement_bin	naturalness	naturalness_bin	response_hand_alive	istarget	response	keypressed	rt	correct	time_stimon	time_stimoff	stimdur
114993	100	0	stimuli/animals/horse/animal_horse10.jpg         	1	1	1	animal_horse10.jpg   	animals  	0	horse     	20	horse10     	209	alive    	1	moves	1	natural 	1	n	0	0        	 	0.0	0	147.584751900053	147.684725500061	0.099973600008525
115143	100	1	stimuli/plant/vine/plant_vine01.jpg              	1	1	1	plant_vine01.jpg     	plant    	6	vine      	36	vine01      	360	alive    	1	still	0	natural 	1	n	0	0        	 	0.0	0	147.734744200017	147.834728899994	0.0999846999766305
115293	100	2	stimuli/animals/eagle/animal_eagle09.jpg         	1	1	1	animal_eagle09.jpg   	animals  	0	eagle     	13	eagle09     	138	alive    	1	moves	1	natural 	1	n	0	0        	 	0.0	0	147.884741700022	147.984731000033	0.0999893000116572
115443	100	3	stimuli/movArt/car/ma_car07.jpg                  	1	1	1	ma_car07.jpg         	movArt   	2	car       	5	car07       	56	not_alive	0	moves	1	artefact	0	n	0	0        	 	0.0	0	148.034740800038	148.13473749999	0.0999966999515891
115593	100	4	stimuli/movNat/waves/mn_waves01.jpg              	1	1	1	mn_waves01.jpg       	movNat   	3	waves     	38	waves01     	380	not_alive	0	moves	1	natural 	1	n	0	0        	 	0.0	0	148.184747399995	148.284738300019	0.0999909000238404
115743	100	5	stimuli/nonmovNat/cliff/nmn_cliff09.jpg          	1	1	1	nmn_cliff09.jpg      	nonmovNat	5	cliff     	7	cliff09     	78	not_alive	0	still	0	natural 	1	n	0	0        	 	0.0	0	148.334748400026	148.434741100064	0.0999927000375465
115893	100	6	stimuli/plant/vine/plant_vine02.jpg              	1	1	1	plant_vine02.jpg     	plant    	6	vine      	36	vine02      	361	alive    	1	still	0	natural 	1	n	0	0        	 	0.0	0	148.484752300079	148.584739900078	0.0999875999987125
116043	100	7	stimuli/animals/dog/animal_dog10.jpg             	1	1	1	animal_dog10.jpg     	animals  	0	dog       	11	dog10       	119	alive    	1	moves	1	natural 	1	n	0	0        	 	0.0	0	148.635086300084	148.73474720004	0.0996608999557793
116193	100	8	stimuli/movNat/fire/mn_fire03.jpg                	1	1	1	mn_fire03.jpg        	movNat   	3	fire      	15	fire03      	152	not_alive	0	moves	1	natural 	1	n	0	0        	 	0.0	0	148.784755900037	148.884747800068	0.0999919000314549
116343	100	9	stimuli/nonmovArt/clothespeg/nma_clothespeg05.jpg	1	1	1	nma_clothespeg05.jpg 	nonmovArt	4	clothespeg	8	clothespeg05	84	not_alive	0	still	0	artefact	0	n	0	0        	 	0.0	0	148.934756900067	149.034749499988	0.0999925999203697
116493	100	10	stimuli/animals2/lemur/animal_lemur07.jpg        	1	1	1	animal_lemur07.jpg   	animals2 	1	lemur     	23	lemur07     	236	alive    	1	moves	1	natural 	1	n	0	0        	 	0.0	0	149.084764800034	149.184756500064	0.099991700029932
116643	100	11	stimuli/plant/vine/plant_vine10.jpg              	1	1	1	plant_vine10.jpg     	plant    	6	vine      	36	vine10      	369	alive    	1	still	0	natural 	1	n	0	0        	 	0.0	0	149.234765800065	149.334757300094	0.0999915000284091
116793	100	12	stimuli/nonmovArt/clothespeg/nma_clothespeg05.jpg	1	1	1	nma_clothespeg05.jpg 	nonmovArt	4	clothespeg	8	clothespeg05	84	not_alive	0	still	0	artefact	0	n	0	0        	 	0.0	0	149.384769900003	149.484762000036	0.0999921000329778
116943	100	13	stimuli/animals2/bee/animal_bee09.jpg            	1	1	1	animal_bee09.jpg     	animals2 	1	bee       	0	bee09       	8	alive    	1	moves	1	natural 	1	n	0	0        	 	0.0	0	149.534777100082	149.634765400086	0.0999883000040427
117093	100	14	stimuli/nonmovArt/mug/nma_mug04.jpg              	1	1	1	nma_mug04.jpg        	nonmovArt	4	mug       	26	mug04       	263	not_alive	0	still	0	artefact	0	n	0	0        	 	0.0	0	149.684776999988	149.784771400038	0.0999944000504911
117243	100	15	stimuli/nonmovNat/rock/nmn_rock02.jpg            	1	1	1	nmn_rock02.jpg       	nonmovNat	5	rock      	30	rock02      	301	not_alive	0	still	0	natural 	1	n	0	0        	 	0.0	0	149.834785300074	149.934776999988	0.0999916999135166
117393	100	16	stimuli/movArt/boat/ma_boat07.jpg                	1	1	1	ma_boat07.jpg        	movArt   	2	boat      	2	boat07      	26	not_alive	0	moves	1	artefact	0	n	0	0        	 	0.0	0	149.984785900102	150.084782900056	0.0999969999538735
117543	100	17	stimuli/animals/horse/animal_horse04.jpg         	1	1	1	animal_horse04.jpg   	animals  	0	horse     	20	horse04     	203	alive    	1	moves	1	natural 	1	n	0	0        	 	0.0	0	150.134793200064	150.234782000072	0.0999888000078499
117693	100	18	stimuli/plant2/moss/plant_moss05.jpg             	1	1	1	plant_moss05.jpg     	plant2   	7	moss      	25	moss05      	254	alive    	1	still	0	natural 	1	n	0	0        	 	0.0	0	150.284790100064	150.384783599991	0.0999934999272227
117843	100	19	stimuli/nonmovArt/bench/nma_bench09.jpg          	1	1	1	nma_bench09.jpg      	nonmovArt	4	bench     	1	bench09     	18	not_alive	0	still	0	artefact	0	n	0	0        	 	0.0	0	150.434793699998	150.534788900055	0.0999952000565827
117993	100	20	stimuli/animals/horse/animal_horse08.jpg         	1	1	1	animal_horse08.jpg   	animals  	0	horse     	20	horse08     	207	alive    	1	moves	1	natural 	1	n	0	0        	 	0.0	0	150.58480140008	150.684791100095	0.099989700014703
118143	100	21	stimuli/plant/tree/plant_tree05.jpg              	1	1	1	plant_tree05.jpg     	plant    	6	tree      	35	tree05      	354	alive    	1	still	0	natural 	1	n	0	0        	 	0.0	0	150.734803700005	150.834795600036	0.0999919000314549
118293	100	22	stimuli/movNat/waves/mn_waves06.jpg              	1	1	1	mn_waves06.jpg       	movNat   	3	waves     	38	waves06     	385	not_alive	0	moves	1	natural 	1	n	0	0        	 	0.0	0	150.884805000038	150.984798600082	0.0999936000443995
118443	100	23	stimuli/movNat/river/mn_river02.jpg              	1	1	1	mn_river02.jpg       	movNat   	3	river     	29	river02     	291	not_alive	0	moves	1	natural 	1	n	0	0        	 	0.0	0	151.0348122	151.134804700036	0.0999925000360236
118593	100	24	stimuli/nonmovNat/shell/nmn_shell06.jpg          	1	1	1	nmn_shell06.jpg      	nonmovNat	5	shell     	32	shell06     	325	not_alive	0	still	0	natural 	1	n	0	0        	 	0.0	0	151.184834800079	151.28480750008	0.0999727000016719
118743	100	25	stimuli/animals2/tiger/animal_tiger09.jpg        	1	1	1	animal_tiger09.jpg   	animals2 	1	tiger     	33	tiger09     	338	alive    	1	moves	1	natural 	1	n	0	0        	 	0.0	0	151.334816500079	151.434810900013	0.0999943999340758
118893	100	26	stimuli/nonmovNat/cliff/nmn_cliff04.jpg          	1	1	1	nmn_cliff04.jpg      	nonmovNat	5	cliff     	7	cliff04     	73	not_alive	0	still	0	natural 	1	n	0	0        	 	0.0	0	151.484821600025	151.584811900044	0.0999903000192717
119043	100	27	stimuli/movNat/waves/mn_waves10.jpg              	1	1	1	mn_waves10.jpg       	movNat   	3	waves     	38	waves10     	389	not_alive	0	moves	1	natural 	1	n	0	0        	 	0.0	0	151.634825000074	151.734817699995	0.0999926999211311
119193	100	28	stimuli/nonmovNat/shell/nmn_shell01.jpg          	1	1	1	nmn_shell01.jpg      	nonmovNat	5	shell     	32	shell01     	320	not_alive	0	still	0	natural 	1	n	0	0        	 	0.0	0	151.784828700009	151.884819800034	0.0999911000253633
119343	100	29	stimuli/nonmovArt/headphones/nma_headphones03.jpg	1	1	1	nma_headphones03.jpg 	nonmovArt	4	headphones	18	headphones03	182	not_alive	0	still	0	artefact	0	n	0	0        	 	0.0	0	151.934833000065	152.034826399991	0.0999933999264613
119493	100	30	stimuli/nonmovArt/lock/nma_lock01.jpg            	1	1	1	nma_lock01.jpg       	nonmovArt	4	lock      	24	lock01      	240	not_alive	0	still	0	artefact	0	n	0	0        	 	0.0	0	152.084835899994	152.184831700055	0.0999958000611514
119643	100	31	stimuli/plant2/clover/plant_clover06.jpg         	1	1	1	plant_clover06.jpg   	plant2   	7	clover    	9	clover06    	95	alive    	1	still	0	natural 	1	n	0	0        	 	0.0	0	152.234840500052	152.3348346001	0.0999941000482068
119793	100	32	stimuli/animals/cat/animal_cat09.jpg             	1	1	1	animal_cat09.jpg     	animals  	0	cat       	6	cat09       	68	alive    	1	moves	1	natural 	1	n	0	0        	 	0.0	0	152.384846000001	152.484835300012	0.0999893000116572
119943	100	33	stimuli/animals2/lemur/animal_lemur08.jpg        	1	1	1	animal_lemur08.jpg   	animals2 	1	lemur     	23	lemur08     	237	alive    	1	moves	1	natural 	1	n	0	0        	 	0.0	0	152.534846700029	152.634839400067	0.0999927000375465
120093	100	34	stimuli/nonmovNat/cliff/nmn_cliff03.jpg          	1	1	1	nmn_cliff03.jpg      	nonmovNat	5	cliff     	7	cliff03     	72	not_alive	0	still	0	natural 	1	n	0	0        	 	0.0	0	152.684852200095	152.7848428	0.0999905999051407
120243	100	35	stimuli/movArt/bus/ma_bus08.jpg                  	1	1	1	ma_bus08.jpg         	movArt   	2	bus       	3	bus08       	37	not_alive	0	moves	1	artefact	0	n	0	0        	 	0.0	0	152.834856700036	152.93484500004	0.0999883000040427
120393	100	36	stimuli/plant/cactus/plant_cactus04.jpg          	1	1	1	plant_cactus04.jpg   	plant    	6	cactus    	4	cactus04    	43	alive    	1	still	0	natural 	1	n	1	0        	 	0.0	0	152.984859600081	153.084850599989	0.0999909999081865
120543	100	37	stimuli/movNat/waterfall/mn_waterfall07.jpg      	1	1	1	mn_waterfall07.jpg   	movNat   	3	waterfall 	37	waterfall07 	376	not_alive	0	moves	1	natural 	1	n	0	0        	 	0.0	0	153.134862800012	153.23485550005	0.0999927000375465
120693	100	38	stimuli/movArt/train/ma_train03.jpg              	1	1	1	ma_train03.jpg       	movArt   	2	train     	34	train03     	342	not_alive	0	moves	1	artefact	0	n	0	1        	f	0.391962899942882	1	153.284864500049	153.38485770009	0.0999932000413537
120843	100	39	stimuli/nonmovNat/crystal/nmn_crystal06.jpg      	1	1	1	nmn_crystal06.jpg    	nonmovNat	5	crystal   	10	crystal06   	105	not_alive	0	still	0	natural 	1	n	0	0        	 	0.0	0	153.434869899997	153.534864300047	0.0999944000504911
120993	100	40	stimuli/animals2/whale/animal_whale08.jpg        	1	1	1	animal_whale08.jpg   	animals2 	1	whale     	39	whale08     	397	alive    	1	moves	1	natural 	1	n	0	0        	 	0.0	0	153.584872800042	153.684867800097	0.0999950000550598
121143	100	41	stimuli/plant/flower/plant_flower02.jpg          	1	1	1	plant_flower02.jpg   	plant    	6	flower    	16	flower02    	161	alive    	1	still	0	natural 	1	n	0	0        	 	0.0	0	153.734878999996	153.834870800027	0.0999918000306934
121293	100	42	stimuli/animals/dolphin/animal_dolphin05.jpg     	1	1	1	animal_dolphin05.jpg 	animals  	0	dolphin   	12	dolphin05   	124	alive    	1	moves	1	natural 	1	n	0	0        	 	0.0	0	153.884879600024	153.984873900074	0.0999943000497296
121443	100	43	stimuli/nonmovNat/rock/nmn_rock01.jpg            	1	1	1	nmn_rock01.jpg       	nonmovNat	5	rock      	30	rock01      	300	not_alive	0	still	0	natural 	1	n	1	0        	 	0.0	0	154.034884600085	154.13487910002	0.0999944999348372
121593	100	44	stimuli/nonmovArt/bench/nma_bench10.jpg          	1	1	1	nma_bench10.jpg      	nonmovArt	4	bench     	1	bench10     	19	not_alive	0	still	0	artefact	0	n	0	0        	 	0.0	0	154.184885900002	154.284881200059	0.0999953000573441
121743	100	45	stimuli/animals/dolphin/animal_dolphin07.jpg     	1	1	1	animal_dolphin07.jpg 	animals  	0	dolphin   	12	dolphin07   	126	alive    	1	moves	1	natural 	1	n	0	1        	f	0.391978499945253	1	154.334890700062	154.434884199989	0.0999934999272227
121893	100	46	stimuli/animals/cat/animal_cat08.jpg             	1	1	1	animal_cat08.jpg     	animals  	0	cat       	6	cat08       	67	alive    	1	moves	1	natural 	1	n	0	0        	 	0.0	0	154.484896600014	154.584888700047	0.0999921000329778
122043	100	47	stimuli/animals2/bee/animal_bee08.jpg            	1	1	1	animal_bee08.jpg     	animals2 	1	bee       	0	bee08       	7	alive    	1	moves	1	natural 	1	n	0	0        	 	0.0	0	154.634901100071	154.73489140009	0.0999903000192717
122193	100	48	stimuli/plant/cactus/plant_cactus02.jpg          	1	1	1	plant_cactus02.jpg   	plant    	6	cactus    	4	cactus02    	41	alive    	1	still	0	natural 	1	n	0	0        	 	0.0	0	154.78490790003	154.884894800023	0.0999868999933824
122343	100	49	stimuli/animals/cat/animal_cat08.jpg             	1	1	1	animal_cat08.jpg     	animals  	0	cat       	6	cat08       	67	alive    	1	moves	1	natural 	1	n	0	0        	 	0.0	0	154.934906100039	155.034900800092	0.0999947000527754
122493	100	50	stimuli/nonmovArt/lock/nma_lock08.jpg            	1	1	1	nma_lock08.jpg       	nonmovArt	4	lock      	24	lock08      	247	not_alive	0	still	0	artefact	0	n	0	0        	 	0.0	0	155.084912099992	155.184926500078	0.100014400086366
122643	100	51	stimuli/movArt/bus/ma_bus09.jpg                  	1	1	1	ma_bus09.jpg         	movArt   	2	bus       	3	bus09       	38	not_alive	0	moves	1	artefact	0	n	0	0        	 	0.0	0	155.23491400003	155.334905100055	0.0999911000253633
122793	100	52	stimuli/animals2/pigeon/animal_pigeon03.jpg      	1	1	1	animal_pigeon03.jpg  	animals2 	1	pigeon    	28	pigeon03    	282	alive    	1	moves	1	natural 	1	n	0	0        	 	0.0	0	155.384917100077	155.484909799998	0.0999926999211311
122943	100	53	stimuli/animals2/tiger/animal_tiger07.jpg        	1	1	1	animal_tiger07.jpg   	animals2 	1	tiger     	33	tiger07     	336	alive    	1	moves	1	natural 	1	n	0	0        	 	0.0	0	155.534923100029	155.634915600065	0.0999925000360236
123093	100	54	stimuli/plant/grass/plant_grass08.jpg            	1	1	1	plant_grass08.jpg    	plant    	6	grass     	17	grass08     	177	alive    	1	still	0	natural 	1	n	1	0        	 	0.0	0	155.684923900058	155.784918899997	0.0999949999386445
123243	100	55	stimuli/movNat/fire/mn_fire06.jpg                	1	1	1	mn_fire06.jpg        	movNat   	3	fire      	15	fire06      	155	not_alive	0	moves	1	natural 	1	n	0	1        	f	0.253255299990997	1	155.834926999989	155.934920000029	0.0999930000398308
123393	100	56	stimuli/plant2/palmtree/plant_palmtree07.jpg     	1	1	1	plant_palmtree07.jpg 	plant2   	7	palmtree  	27	palmtree07  	276	alive    	1	still	0	natural 	1	n	0	0        	 	0.0	0	155.984932900057	156.0849263001	0.0999934000428766
123543	100	57	stimuli/plant2/lemontree/plant_lemontree04.jpg   	1	1	1	plant_lemontree04.jpg	plant2   	7	lemontree 	22	lemontree04 	223	alive    	1	still	0	natural 	1	n	0	0        	 	0.0	0	156.134936399991	156.234927800018	0.0999914000276476
123693	100	58	stimuli/movNat/river/mn_river10.jpg              	1	1	1	mn_river10.jpg       	movNat   	3	river     	29	river10     	299	not_alive	0	moves	1	natural 	1	n	0	0        	 	0.0	0	156.284943100065	156.384933100082	0.0999900000169873
123843	100	59	stimuli/animals2/pigeon/animal_pigeon08.jpg      	1	1	1	animal_pigeon08.jpg  	animals2 	1	pigeon    	28	pigeon08    	287	alive    	1	moves	1	natural 	1	n	0	0        	 	0.0	0	156.434941600077	156.534936600015	0.0999949999386445
123993	100	60	stimuli/nonmovNat/sand/nmn_sand07.jpg            	1	1	1	nmn_sand07.jpg       	nonmovNat	5	sand      	31	sand07      	316	not_alive	0	still	0	natural 	1	n	0	0        	 	0.0	0	156.584947900032	156.684940800071	0.0999929000390694
124143	100	61	stimuli/animals2/tiger/animal_tiger03.jpg        	1	1	1	animal_tiger03.jpg   	animals2 	1	tiger     	33	tiger03     	332	alive    	1	moves	1	natural 	1	n	0	0        	 	0.0	0	156.734951500082	156.834945500013	0.09999399993103
124293	100	62	stimuli/plant2/clover/plant_clover02.jpg         	1	1	1	plant_clover02.jpg   	plant2   	7	clover    	9	clover02    	91	alive    	1	still	0	natural 	1	n	0	0        	 	0.0	0	156.884956100024	156.984950300073	0.0999942000489682
124443	100	63	stimuli/plant2/fern/plant_fern05.jpg             	1	1	1	plant_fern05.jpg     	plant2   	7	fern      	14	fern05      	144	alive    	1	still	0	natural 	1	n	0	0        	 	0.0	0	157.034958400065	157.1349507001	0.0999923000345007
124593	100	64	stimuli/animals2/bee/animal_bee08.jpg            	1	1	1	animal_bee08.jpg     	animals2 	1	bee       	0	bee08       	7	alive    	1	moves	1	natural 	1	n	0	0        	 	0.0	0	157.184961799998	157.284954100032	0.0999923000345007
124743	100	65	stimuli/plant2/lemontree/plant_lemontree09.jpg   	1	1	1	plant_lemontree09.jpg	plant2   	7	lemontree 	22	lemontree09 	228	alive    	1	still	0	natural 	1	n	0	0        	 	0.0	0	157.334965800052	157.434957500082	0.099991700029932
124893	100	66	stimuli/plant/flower/plant_flower01.jpg          	1	1	1	plant_flower01.jpg   	plant    	6	flower    	16	flower01    	160	alive    	1	still	0	natural 	1	n	0	0        	 	0.0	0	157.484970199992	157.584962300025	0.0999921000329778
125043	100	67	stimuli/animals/dolphin/animal_dolphin05.jpg     	1	1	1	animal_dolphin05.jpg 	animals  	0	dolphin   	12	dolphin05   	124	alive    	1	moves	1	natural 	1	n	0	0        	 	0.0	0	157.634972900036	157.734965000069	0.0999921000329778
125193	100	68	stimuli/animals/dog/animal_dog04.jpg             	1	1	1	animal_dog04.jpg     	animals  	0	dog       	11	dog04       	113	alive    	1	moves	1	natural 	1	n	0	0        	 	0.0	0	157.784977900097	157.884968700004	0.0999907999066636
125343	100	69	stimuli/movNat/waterfall/mn_waterfall03.jpg      	1	1	1	mn_waterfall03.jpg   	movNat   	3	waterfall 	37	waterfall03 	372	not_alive	0	moves	1	natural 	1	n	0	0        	 	0.0	0	157.934979700018	158.034972700058	0.0999930000398308
125493	100	70	stimuli/animals2/pigeon/animal_pigeon10.jpg      	1	1	1	animal_pigeon10.jpg  	animals2 	1	pigeon    	28	pigeon10    	289	alive    	1	moves	1	natural 	1	n	0	0        	 	0.0	0	158.084982600063	158.184981100028	0.0999984999652952
125643	100	71	stimuli/plant2/fern/plant_fern08.jpg             	1	1	1	plant_fern08.jpg     	plant2   	7	fern      	14	fern08      	147	alive    	1	still	0	natural 	1	n	0	0        	 	0.0	0	158.234985699994	158.334979900043	0.0999942000489682
125793	100	72	stimuli/nonmovArt/headphones/nma_headphones10.jpg	1	1	1	nma_headphones10.jpg 	nonmovArt	4	headphones	18	headphones10	189	not_alive	0	still	0	artefact	0	n	0	0        	 	0.0	0	158.384990400053	158.484984600102	0.0999942000489682
125943	100	73	stimuli/movArt/car/ma_car07.jpg                  	1	1	1	ma_car07.jpg         	movArt   	2	car       	5	car07       	56	not_alive	0	moves	1	artefact	0	n	0	0        	 	0.0	0	158.534993899986	158.634994600085	0.100000700098462
126093	100	74	stimuli/animals/eagle/animal_eagle02.jpg         	1	1	1	animal_eagle02.jpg   	animals  	0	eagle     	13	eagle02     	131	alive    	1	moves	1	natural 	1	n	0	0        	 	0.0	0	158.684999900055	158.784992500092	0.099992600036785
126243	100	75	stimuli/movArt/car/ma_car09.jpg                  	1	1	1	ma_car09.jpg         	movArt   	2	car       	5	car09       	58	not_alive	0	moves	1	artefact	0	n	0	0        	 	0.0	0	158.835003099986	158.93499530002	0.0999922000337392
126393	100	76	stimuli/movArt/bus/ma_bus04.jpg                  	1	1	1	ma_bus04.jpg         	movArt   	2	bus       	3	bus04       	33	not_alive	0	moves	1	artefact	0	n	0	0        	 	0.0	0	158.985011900077	159.084998600069	0.0999866999918595
126543	100	77	stimuli/nonmovNat/shell/nmn_shell05.jpg          	1	1	1	nmn_shell05.jpg      	nonmovNat	5	shell     	32	shell05     	324	not_alive	0	still	0	natural 	1	n	0	0        	 	0.0	0	159.135008900077	159.235002600006	0.0999936999287456
126693	100	78	stimuli/plant/cactus/plant_cactus03.jpg          	1	1	1	plant_cactus03.jpg   	plant    	6	cactus    	4	cactus03    	42	alive    	1	still	0	natural 	1	n	0	0        	 	0.0	0	159.285014500027	159.3850119001	0.0999974000733346
126843	100	79	stimuli/nonmovArt/mug/nma_mug02.jpg              	1	1	1	nma_mug02.jpg        	nonmovArt	4	mug       	26	mug02       	261	not_alive	0	still	0	artefact	0	n	0	0        	 	0.0	0	159.435022199992	159.535016400041	0.0999942000489682
137943	100	80	stimuli/plant2/fern/plant_fern08.jpg             	1	2	1	plant_fern08.jpg     	plant2   	7	fern      	14	fern08      	147	alive    	1	still	0	natural 	1	n	0	0        	 	0.0	0	170.535308800056	170.635286300094	0.0999775000382215
138093	100	81	stimuli/movArt/boat/ma_boat08.jpg                	1	2	1	ma_boat08.jpg        	movArt   	2	boat      	2	boat08      	27	not_alive	0	moves	1	artefact	0	n	0	0        	 	0.0	0	170.685300800018	170.785291100037	0.0999903000192717
138243	100	82	stimuli/movNat/waterfall/mn_waterfall08.jpg      	1	2	1	mn_waterfall08.jpg   	movNat   	3	waterfall 	37	waterfall08 	377	not_alive	0	moves	1	natural 	1	n	0	0        	 	0.0	0	170.835300200037	170.935292200069	0.0999920000322163
138393	100	83	stimuli/plant/grass/plant_grass07.jpg            	1	2	1	plant_grass07.jpg    	plant    	6	grass     	17	grass07     	176	alive    	1	still	0	natural 	1	n	0	0        	 	0.0	0	170.985303000081	171.085298100021	0.0999950999394059
138543	100	84	stimuli/movArt/helicopter/ma_helicopter09.jpg    	1	2	1	ma_helicopter09.jpg  	movArt   	2	helicopter	19	helicopter09	198	not_alive	0	moves	1	artefact	0	n	0	0        	 	0.0	0	171.135310500045	171.235310300021	0.099999799975194
138693	100	85	stimuli/plant2/palmtree/plant_palmtree10.jpg     	1	2	1	plant_palmtree10.jpg 	plant2   	7	palmtree  	27	palmtree10  	279	alive    	1	still	0	natural 	1	n	0	0        	 	0.0	0	171.285316399997	171.385301700095	0.0999853000976145
138843	100	86	stimuli/animals2/whale/animal_whale08.jpg        	1	2	1	animal_whale08.jpg   	animals2 	1	whale     	39	whale08     	397	alive    	1	moves	1	natural 	1	n	0	0        	 	0.0	0	171.435314000002	171.535307600047	0.0999936000443995
138993	100	87	stimuli/movArt/train/ma_train05.jpg              	1	2	1	ma_train05.jpg       	movArt   	2	train     	34	train05     	344	not_alive	0	moves	1	artefact	0	n	0	0        	 	0.0	0	171.585320200073	171.685311999987	0.0999917999142781
139143	100	88	stimuli/nonmovNat/crystal/nmn_crystal05.jpg      	1	2	1	nmn_crystal05.jpg    	nonmovNat	5	crystal   	10	crystal05   	104	not_alive	0	still	0	natural 	1	n	0	0        	 	0.0	0	171.735321299988	171.835315400036	0.0999941000482068
139293	100	89	stimuli/movNat/hotspring/mn_hotspring04.jpg      	1	2	1	mn_hotspring04.jpg   	movNat   	3	hotspring 	21	hotspring04 	213	not_alive	0	moves	1	natural 	1	n	0	0        	 	0.0	0	171.885323100025	171.985337099992	0.100013999966905
139443	100	90	stimuli/animals/eagle/animal_eagle01.jpg         	1	2	1	animal_eagle01.jpg   	animals  	0	eagle     	13	eagle01     	130	alive    	1	moves	1	natural 	1	n	0	0        	 	0.0	0	172.035330299987	172.135321900016	0.0999916000291705
139593	100	91	stimuli/nonmovNat/sand/nmn_sand01.jpg            	1	2	1	nmn_sand01.jpg       	nonmovNat	5	sand      	31	sand01      	310	not_alive	0	still	0	natural 	1	n	0	0        	 	0.0	0	172.185333100031	172.285325000063	0.0999919000314549
139743	100	92	stimuli/animals/dog/animal_dog01.jpg             	1	2	1	animal_dog01.jpg     	animals  	0	dog       	11	dog01       	110	alive    	1	moves	1	natural 	1	n	0	0        	 	0.0	0	172.335335900076	172.435329800006	0.0999938999302685
139893	100	93	stimuli/plant/tree/plant_tree05.jpg              	1	2	1	plant_tree05.jpg     	plant    	6	tree      	35	tree05      	354	alive    	1	still	0	natural 	1	n	0	0        	 	0.0	0	172.485340100015	172.585331000038	0.0999909000238404
140043	100	94	stimuli/nonmovNat/crystal/nmn_crystal01.jpg      	1	2	1	nmn_crystal01.jpg    	nonmovNat	5	crystal   	10	crystal01   	100	not_alive	0	still	0	natural 	1	n	0	0        	 	0.0	0	172.63534170005	172.735367999994	0.100026299944147
140193	100	95	stimuli/plant2/palmtree/plant_palmtree07.jpg     	1	2	1	plant_palmtree07.jpg 	plant2   	7	palmtree  	27	palmtree07  	276	alive    	1	still	0	natural 	1	n	0	0        	 	0.0	0	172.785347700003	172.88534040004	0.0999927000375465
140343	100	96	stimuli/animals2/lemur/animal_lemur06.jpg        	1	2	1	animal_lemur06.jpg   	animals2 	1	lemur     	23	lemur06     	235	alive    	1	moves	1	natural 	1	n	0	0        	 	0.0	0	172.935350700049	173.035344100092	0.0999934000428766
140493	100	97	stimuli/nonmovNat/sand/nmn_sand09.jpg            	1	2	1	nmn_sand09.jpg       	nonmovNat	5	sand      	31	sand09      	318	not_alive	0	still	0	natural 	1	n	0	0        	 	0.0	0	173.085353200091	173.185354200075	0.100000999984331
140643	100	98	stimuli/nonmovNat/rock/nmn_rock01.jpg            	1	2	1	nmn_rock01.jpg       	nonmovNat	5	rock      	30	rock01      	300	not_alive	0	still	0	natural 	1	n	0	0        	 	0.0	0	173.235359200044	173.335351200076	0.0999920000322163
140793	100	99	stimuli/movNat/river/mn_river07.jpg              	1	2	1	mn_river07.jpg       	movNat   	3	river     	29	river07     	296	not_alive	0	moves	1	natural 	1	n	0	0        	 	0.0	0	173.385360300075	173.485382199986	0.100021899910644
140943	100	100	stimuli/nonmovArt/mug/nma_mug02.jpg              	1	2	1	nma_mug02.jpg        	nonmovArt	4	mug       	26	mug02       	261	not_alive	0	still	0	artefact	0	n	0	0        	 	0.0	0	173.535366100026	173.635358700063	0.099992600036785
141093	100	101	stimuli/plant/flower/plant_flower09.jpg          	1	2	1	plant_flower09.jpg   	plant    	6	flower    	16	flower09    	168	alive    	1	still	0	natural 	1	n	0	0        	 	0.0	0	173.685368900071	173.7853626	0.0999936999287456
141243	100	102	stimuli/movNat/hotspring/mn_hotspring01.jpg      	1	2	1	mn_hotspring01.jpg   	movNat   	3	hotspring 	21	hotspring01 	210	not_alive	0	moves	1	natural 	1	n	0	0        	 	0.0	0	173.835372100002	173.935367300059	0.0999952000565827
141393	100	103	stimuli/nonmovArt/lock/nma_lock07.jpg            	1	2	1	nma_lock07.jpg       	nonmovArt	4	lock      	24	lock07      	246	not_alive	0	still	0	artefact	0	n	0	0        	 	0.0	0	173.985377100064	174.085395700065	0.100018600001931
141543	100	104	stimuli/plant2/moss/plant_moss01.jpg             	1	2	1	plant_moss01.jpg     	plant2   	7	moss      	25	moss01      	250	alive    	1	still	0	natural 	1	n	1	0        	 	0.0	0	174.135380899999	174.235385800013	0.100004900014028
141693	100	105	stimuli/animals2/whale/animal_whale09.jpg        	1	2	1	animal_whale09.jpg   	animals2 	1	whale     	39	whale09     	398	alive    	1	moves	1	natural 	1	n	0	1        	f	0.253758800099604	1	174.285380700021	174.385379799991	0.0999990999698639
141843	100	106	stimuli/movArt/helicopter/ma_helicopter07.jpg    	1	2	1	ma_helicopter07.jpg  	movArt   	2	helicopter	19	helicopter07	196	not_alive	0	moves	1	artefact	0	n	0	0        	 	0.0	0	174.435393700027	174.535381500027	0.0999878000002354
141993	100	107	stimuli/movNat/hotspring/mn_hotspring08.jpg      	1	2	1	mn_hotspring08.jpg   	movNat   	3	hotspring 	21	hotspring08 	217	not_alive	0	moves	1	natural 	1	n	0	0        	 	0.0	0	174.585427800077	174.68538410007	0.0999562999932095
142143	100	108	stimuli/movArt/helicopter/ma_helicopter05.jpg    	1	2	1	ma_helicopter05.jpg  	movArt   	2	helicopter	19	helicopter05	194	not_alive	0	moves	1	artefact	0	n	0	0        	 	0.0	0	174.735395200085	174.835401699995	0.100006499909796
142293	100	109	stimuli/movArt/train/ma_train05.jpg              	1	2	1	ma_train05.jpg       	movArt   	2	train     	34	train05     	344	not_alive	0	moves	1	artefact	0	n	0	0        	 	0.0	0	174.885399800027	174.985394200077	0.0999944000504911
142443	100	110	stimuli/plant2/lemontree/plant_lemontree05.jpg   	1	2	1	plant_lemontree05.jpg	plant2   	7	lemontree 	22	lemontree05 	224	alive    	1	still	0	natural 	1	n	0	0        	 	0.0	0	175.035402100068	175.135397200007	0.0999950999394059
142593	100	111	stimuli/nonmovArt/bench/nma_bench10.jpg          	1	2	1	nma_bench10.jpg      	nonmovArt	4	bench     	1	bench10     	19	not_alive	0	still	0	artefact	0	n	0	0        	 	0.0	0	175.185405600001	175.285398800042	0.0999932000413537
142743	100	112	stimuli/plant2/clover/plant_clover04.jpg         	1	2	1	plant_clover04.jpg   	plant2   	7	clover    	9	clover04    	93	alive    	1	still	0	natural 	1	n	1	0        	 	0.0	0	175.335443100077	175.43540409999	0.0999609999125823
142893	100	113	stimuli/plant/tree/plant_tree08.jpg              	1	2	1	plant_tree08.jpg     	plant    	6	tree      	35	tree08      	357	alive    	1	still	0	natural 	1	n	0	0        	 	0.0	0	175.485413499991	175.585408500046	0.0999950000550598
143043	100	114	stimuli/plant/grass/plant_grass09.jpg            	1	2	1	plant_grass09.jpg    	plant    	6	grass     	17	grass09     	178	alive    	1	still	0	natural 	1	n	0	1        	f	0.391938499989919	1	175.635420900071	175.735410900088	0.0999900000169873
143193	100	115	stimuli/nonmovArt/clothespeg/nma_clothespeg08.jpg	1	2	1	nma_clothespeg08.jpg 	nonmovArt	4	clothespeg	8	clothespeg08	87	not_alive	0	still	0	artefact	0	n	0	0        	 	0.0	0	175.785424300004	175.88541550003	0.0999912000261247
143343	100	116	stimuli/plant2/moss/plant_moss10.jpg             	1	2	1	plant_moss10.jpg     	plant2   	7	moss      	25	moss10      	259	alive    	1	still	0	natural 	1	n	0	0        	 	0.0	0	175.935446200077	176.035419200081	0.0999730000039563
143493	100	117	stimuli/movNat/fire/mn_fire06.jpg                	1	2	1	mn_fire06.jpg        	movNat   	3	fire      	15	fire06      	155	not_alive	0	moves	1	natural 	1	n	0	0        	 	0.0	0	176.085455700057	176.185422700015	0.0999669999582693
143643	100	118	stimuli/movArt/boat/ma_boat07.jpg                	1	2	1	ma_boat07.jpg        	movArt   	2	boat      	2	boat07      	26	not_alive	0	moves	1	artefact	0	n	0	0        	 	0.0	0	176.235434700036	176.335424900055	0.0999902000185102
143793	100	119	stimuli/nonmovArt/headphones/nma_headphones05.jpg	1	2	1	nma_headphones05.jpg 	nonmovArt	4	headphones	18	headphones05	184	not_alive	0	still	0	artefact	0	n	0	0        	 	0.0	0	176.385437100078	176.485430800007	0.0999936999287456
143943	100	120	stimuli/plant/cactus/plant_cactus05.jpg          	1	2	1	plant_cactus05.jpg   	plant    	6	cactus    	4	cactus05    	44	alive    	1	still	0	natural 	1	n	0	0        	 	0.0	0	176.535441400018	176.635433300049	0.0999919000314549
144093	100	121	stimuli/movArt/boat/ma_boat08.jpg                	1	2	1	ma_boat08.jpg        	movArt   	2	boat      	2	boat08      	27	not_alive	0	moves	1	artefact	0	n	0	0        	 	0.0	0	176.685454300023	176.785435400088	0.0999811000656336
144243	100	122	stimuli/plant2/lemontree/plant_lemontree09.jpg   	1	2	1	plant_lemontree09.jpg	plant2   	7	lemontree 	22	lemontree09 	228	alive    	1	still	0	natural 	1	n	0	0        	 	0.0	0	176.835448099999	176.935441600042	0.099993500043638
144393	100	123	stimuli/animals/dog/animal_dog08.jpg             	1	2	1	animal_dog08.jpg     	animals  	0	dog       	11	dog08       	117	alive    	1	moves	1	natural 	1	n	0	0        	 	0.0	0	176.985449300031	177.085444500088	0.0999952000565827
144543	100	124	stimuli/nonmovNat/shell/nmn_shell10.jpg          	1	2	1	nmn_shell10.jpg      	nonmovNat	5	shell     	32	shell10     	329	not_alive	0	still	0	natural 	1	n	0	0        	 	0.0	0	177.135454100091	177.235451200046	0.0999970999546349
144693	100	125	stimuli/plant/flower/plant_flower03.jpg          	1	2	1	plant_flower03.jpg   	plant    	6	flower    	16	flower03    	162	alive    	1	still	0	natural 	1	n	0	0        	 	0.0	0	177.285457700025	177.385450900067	0.0999932000413537
144843	100	126	stimuli/movNat/fire/mn_fire02.jpg                	1	2	1	mn_fire02.jpg        	movNat   	3	fire      	15	fire02      	151	not_alive	0	moves	1	natural 	1	n	0	0        	 	0.0	0	177.435461600078	177.535455500009	0.0999938999302685
144993	100	127	stimuli/nonmovArt/mug/nma_mug05.jpg              	1	2	1	nma_mug05.jpg        	nonmovArt	4	mug       	26	mug05       	264	not_alive	0	still	0	artefact	0	n	0	0        	 	0.0	0	177.585466300021	177.685458900058	0.099992600036785
145143	100	128	stimuli/nonmovNat/rock/nmn_rock07.jpg            	1	2	1	nmn_rock07.jpg       	nonmovNat	5	rock      	30	rock07      	306	not_alive	0	still	0	natural 	1	n	0	0        	 	0.0	0	177.735471300082	177.835469400045	0.0999980999622494
145293	100	129	stimuli/nonmovNat/rock/nmn_rock05.jpg            	1	2	1	nmn_rock05.jpg       	nonmovNat	5	rock      	30	rock05      	304	not_alive	0	still	0	natural 	1	n	0	0        	 	0.0	0	177.88547400001	177.98546710005	0.0999931000405922
145443	100	130	stimuli/animals/horse/animal_horse03.jpg         	1	2	1	animal_horse03.jpg   	animals  	0	horse     	20	horse03     	202	alive    	1	moves	1	natural 	1	n	0	0        	 	0.0	0	178.035477900063	178.135468800087	0.0999909000238404
145593	100	131	stimuli/nonmovNat/crystal/nmn_crystal03.jpg      	1	2	1	nmn_crystal03.jpg    	nonmovNat	5	crystal   	10	crystal03   	102	not_alive	0	still	0	natural 	1	n	0	0        	 	0.0	0	178.185482700006	178.285497000092	0.100014300085604
145743	100	132	stimuli/movArt/train/ma_train08.jpg              	1	2	1	ma_train08.jpg       	movArt   	2	train     	34	train08     	347	not_alive	0	moves	1	artefact	0	n	0	0        	 	0.0	0	178.335485200048	178.435477600084	0.0999924000352621
145893	100	133	stimuli/plant2/palmtree/plant_palmtree09.jpg     	1	2	1	plant_palmtree09.jpg 	plant2   	7	palmtree  	27	palmtree09  	278	alive    	1	still	0	natural 	1	n	0	0        	 	0.0	0	178.485487100086	178.585482000024	0.099994899937883
146043	100	134	stimuli/nonmovNat/cliff/nmn_cliff08.jpg          	1	2	1	nmn_cliff08.jpg      	nonmovNat	5	cliff     	7	cliff08     	77	not_alive	0	still	0	natural 	1	n	0	0        	 	0.0	0	178.635492300033	178.735485100071	0.0999928000383079
146193	100	135	stimuli/nonmovArt/clothespeg/nma_clothespeg06.jpg	1	2	1	nma_clothespeg06.jpg 	nonmovArt	4	clothespeg	8	clothespeg06	85	not_alive	0	still	0	artefact	0	n	0	0        	 	0.0	0	178.78549550008	178.885487799998	0.0999922999180853
146343	100	136	stimuli/nonmovNat/sand/nmn_sand03.jpg            	1	2	1	nmn_sand03.jpg       	nonmovNat	5	sand      	31	sand03      	312	not_alive	0	still	0	natural 	1	n	0	0        	 	0.0	0	178.935498700012	179.035519800032	0.100021100020967
146493	100	137	stimuli/animals2/bee/animal_bee01.jpg            	1	2	1	animal_bee01.jpg     	animals2 	1	bee       	0	bee01       	0	alive    	1	moves	1	natural 	1	n	0	0        	 	0.0	0	179.08550330007	179.185498800012	0.0999954999424517
146643	100	138	stimuli/plant2/clover/plant_clover05.jpg         	1	2	1	plant_clover05.jpg   	plant2   	7	clover    	9	clover05    	94	alive    	1	still	0	natural 	1	n	0	0        	 	0.0	0	179.235506199999	179.335498900036	0.0999927000375465
146793	100	139	stimuli/plant2/clover/plant_clover03.jpg         	1	2	1	plant_clover03.jpg   	plant2   	7	clover    	9	clover03    	92	alive    	1	still	0	natural 	1	n	0	0        	 	0.0	0	179.385509100044	179.485505299992	0.0999961999477819
146943	100	140	stimuli/movNat/waves/mn_waves08.jpg              	1	2	1	mn_waves08.jpg       	movNat   	3	waves     	38	waves08     	387	not_alive	0	moves	1	natural 	1	n	0	0        	 	0.0	0	179.535513300099	179.635523400037	0.100010099937208
147093	100	141	stimuli/nonmovArt/headphones/nma_headphones05.jpg	1	2	1	nma_headphones05.jpg 	nonmovArt	4	headphones	18	headphones05	184	not_alive	0	still	0	artefact	0	n	0	0        	 	0.0	0	179.685519300052	179.785529199988	0.100009899935685
147243	100	142	stimuli/movNat/waves/mn_waves08.jpg              	1	2	1	mn_waves08.jpg       	movNat   	3	waves     	38	waves08     	387	not_alive	0	moves	1	natural 	1	n	0	0        	 	0.0	0	179.8355226001	179.935514700017	0.0999920999165624
147393	100	143	stimuli/movArt/helicopter/ma_helicopter03.jpg    	1	2	1	ma_helicopter03.jpg  	movArt   	2	helicopter	19	helicopter03	192	not_alive	0	moves	1	artefact	0	n	0	0        	 	0.0	0	179.985524200019	180.085520600085	0.0999964000657201
147543	100	144	stimuli/plant2/moss/plant_moss07.jpg             	1	2	1	plant_moss07.jpg     	plant2   	7	moss      	25	moss07      	256	alive    	1	still	0	natural 	1	n	0	0        	 	0.0	0	180.13555180002	180.235522200004	0.0999703999841586
147693	100	145	stimuli/movNat/hotspring/mn_hotspring05.jpg      	1	2	1	mn_hotspring05.jpg   	movNat   	3	hotspring 	21	hotspring05 	214	not_alive	0	moves	1	natural 	1	n	0	0        	 	0.0	0	180.285531500005	180.385543900076	0.100012400071137
147843	100	146	stimuli/movArt/boat/ma_boat09.jpg                	1	2	1	ma_boat09.jpg        	movArt   	2	boat      	2	boat09      	28	not_alive	0	moves	1	artefact	0	n	0	0        	 	0.0	0	180.435536700068	180.535532300011	0.0999955999432132
147993	100	147	stimuli/plant2/lemontree/plant_lemontree01.jpg   	1	2	1	plant_lemontree01.jpg	plant2   	7	lemontree 	22	lemontree01 	220	alive    	1	still	0	natural 	1	n	0	0        	 	0.0	0	180.585539499996	180.68553560006	0.0999961000634357
148143	100	148	stimuli/animals2/whale/animal_whale03.jpg        	1	2	1	animal_whale03.jpg   	animals2 	1	whale     	39	whale03     	392	alive    	1	moves	1	natural 	1	n	0	0        	 	0.0	0	180.735543300048	180.835537600098	0.0999943000497296
148293	100	149	stimuli/plant/tree/plant_tree03.jpg              	1	2	1	plant_tree03.jpg     	plant    	6	tree      	35	tree03      	352	alive    	1	still	0	natural 	1	n	0	0        	 	0.0	0	180.885576100089	180.985543000046	0.0999668999575078
148443	100	150	stimuli/animals/horse/animal_horse03.jpg         	1	2	1	animal_horse03.jpg   	animals  	0	horse     	20	horse03     	202	alive    	1	moves	1	natural 	1	n	0	0        	 	0.0	0	181.035552900052	181.135550900013	0.099997999961488
148593	100	151	stimuli/animals/eagle/animal_eagle01.jpg         	1	2	1	animal_eagle01.jpg   	animals  	0	eagle     	13	eagle01     	130	alive    	1	moves	1	natural 	1	n	0	0        	 	0.0	0	181.185554200085	181.285548600019	0.0999943999340758
148743	100	152	stimuli/plant2/lemontree/plant_lemontree01.jpg   	1	2	1	plant_lemontree01.jpg	plant2   	7	lemontree 	22	lemontree01 	220	alive    	1	still	0	natural 	1	n	0	0        	 	0.0	0	181.335558900028	181.435550400056	0.0999915000284091
148893	100	153	stimuli/nonmovNat/shell/nmn_shell08.jpg          	1	2	1	nmn_shell08.jpg      	nonmovNat	5	shell     	32	shell08     	327	not_alive	0	still	0	natural 	1	n	0	0        	 	0.0	0	181.485590900062	181.585554799996	0.0999638999346644
149043	100	154	stimuli/movNat/waterfall/mn_waterfall07.jpg      	1	2	1	mn_waterfall07.jpg   	movNat   	3	waterfall 	37	waterfall07 	376	not_alive	0	moves	1	natural 	1	n	0	0        	 	0.0	0	181.635588800069	181.735558900051	0.0999700999818742
149193	100	155	stimuli/nonmovArt/mug/nma_mug07.jpg              	1	2	1	nma_mug07.jpg        	nonmovArt	4	mug       	26	mug07       	266	not_alive	0	still	0	artefact	0	n	0	0        	 	0.0	0	181.785571200075	181.885573200067	0.100001999991946
149343	100	156	stimuli/nonmovArt/headphones/nma_headphones08.jpg	1	2	1	nma_headphones08.jpg 	nonmovArt	4	headphones	18	headphones08	187	not_alive	0	still	0	artefact	0	n	0	0        	 	0.0	0	181.935572699993	182.035565200029	0.0999925000360236
149493	100	157	stimuli/animals2/whale/animal_whale03.jpg        	1	2	1	animal_whale03.jpg   	animals2 	1	whale     	39	whale03     	392	alive    	1	moves	1	natural 	1	n	0	0        	 	0.0	0	182.08557970007	182.185570400092	0.0999907000223175
149643	100	158	stimuli/animals/horse/animal_horse01.jpg         	1	2	1	animal_horse01.jpg   	animals  	0	horse     	20	horse01     	200	alive    	1	moves	1	natural 	1	n	0	0        	 	0.0	0	182.235593700083	182.335574800032	0.0999810999492183
149793	100	159	stimuli/animals/dolphin/animal_dolphin06.jpg     	1	2	1	animal_dolphin06.jpg 	animals  	0	dolphin   	12	dolphin06   	125	alive    	1	moves	1	natural 	1	n	0	0        	 	0.0	0	182.385590900085	182.485578500084	0.0999875999987125
167094	100	160	stimuli/movNat/fire/mn_fire09.jpg                	1	3	1	mn_fire09.jpg        	movNat   	3	fire      	15	fire09      	158	not_alive	0	moves	1	natural 	1	n	0	0        	 	0.0	0	199.686021700036	199.786011700053	0.0999900000169873
167244	100	161	stimuli/plant/grass/plant_grass07.jpg            	1	3	1	plant_grass07.jpg    	plant    	6	grass     	17	grass07     	176	alive    	1	still	0	natural 	1	n	0	0        	 	0.0	0	199.836030700011	199.936017900007	0.0999871999956667
167394	100	162	stimuli/nonmovNat/shell/nmn_shell02.jpg          	1	3	1	nmn_shell02.jpg      	nonmovNat	5	shell     	32	shell02     	321	not_alive	0	still	0	natural 	1	n	0	0        	 	0.0	0	199.986026800005	200.086019400042	0.099992600036785
167544	100	163	stimuli/animals/cat/animal_cat09.jpg             	1	3	1	animal_cat09.jpg     	animals  	0	cat       	6	cat09       	68	alive    	1	moves	1	natural 	1	n	0	0        	 	0.0	0	200.136030900059	200.236021500081	0.099990600021556
167694	100	164	stimuli/nonmovArt/clothespeg/nma_clothespeg04.jpg	1	3	1	nma_clothespeg04.jpg 	nonmovArt	4	clothespeg	8	clothespeg04	83	not_alive	0	still	0	artefact	0	n	0	0        	 	0.0	0	200.2860353	200.386026000022	0.0999907000223175
167844	100	165	stimuli/animals/cat/animal_cat01.jpg             	1	3	1	animal_cat01.jpg     	animals  	0	cat       	6	cat01       	60	alive    	1	moves	1	natural 	1	n	0	0        	 	0.0	0	200.436037900043	200.536028900067	0.0999910000246018
167994	100	166	stimuli/nonmovNat/sand/nmn_sand05.jpg            	1	3	1	nmn_sand05.jpg       	nonmovNat	5	sand      	31	sand05      	314	not_alive	0	still	0	natural 	1	n	0	0        	 	0.0	0	200.586041900096	200.686055100057	0.100013199960813
168144	100	167	stimuli/plant2/fern/plant_fern10.jpg             	1	3	1	plant_fern10.jpg     	plant2   	7	fern      	14	fern10      	149	alive    	1	still	0	natural 	1	n	0	0        	 	0.0	0	200.736042300006	200.836040900089	0.099998600082472
168294	100	168	stimuli/movArt/bus/ma_bus06.jpg                  	1	3	1	ma_bus06.jpg         	movArt   	2	bus       	3	bus06       	35	not_alive	0	moves	1	artefact	0	n	0	0        	 	0.0	0	200.88605020009	200.986040799995	0.0999905999051407
168444	100	169	stimuli/movArt/helicopter/ma_helicopter10.jpg    	1	3	1	ma_helicopter10.jpg  	movArt   	2	helicopter	19	helicopter10	199	not_alive	0	moves	1	artefact	0	n	0	0        	 	0.0	0	201.03605200001	201.13604370004	0.099991700029932
168594	100	170	stimuli/animals2/bee/animal_bee02.jpg            	1	3	1	animal_bee02.jpg     	animals2 	1	bee       	0	bee02       	1	alive    	1	moves	1	natural 	1	n	0	0        	 	0.0	0	201.1860607001	201.286047000089	0.0999862999888137
168744	100	171	stimuli/nonmovArt/lock/nma_lock08.jpg            	1	3	1	nma_lock08.jpg       	nonmovArt	4	lock      	24	lock08      	247	not_alive	0	still	0	artefact	0	n	0	0        	 	0.0	0	201.336059900001	201.436081600026	0.100021700025536
168894	100	172	stimuli/animals/dolphin/animal_dolphin10.jpg     	1	3	1	animal_dolphin10.jpg 	animals  	0	dolphin   	12	dolphin10   	129	alive    	1	moves	1	natural 	1	n	0	0        	 	0.0	0	201.486062100041	201.586056200089	0.0999941000482068
169044	100	173	stimuli/animals2/bee/animal_bee10.jpg            	1	3	1	animal_bee10.jpg     	animals2 	1	bee       	0	bee10       	9	alive    	1	moves	1	natural 	1	n	0	0        	 	0.0	0	201.636066600098	201.73605810001	0.0999914999119937
169194	100	174	stimuli/movNat/waterfall/mn_waterfall02.jpg      	1	3	1	mn_waterfall02.jpg   	movNat   	3	waterfall 	37	waterfall02 	371	not_alive	0	moves	1	natural 	1	n	0	0        	 	0.0	0	201.786069400026	201.886063300073	0.0999939000466838
169344	100	175	stimuli/plant/tree/plant_tree02.jpg              	1	3	1	plant_tree02.jpg     	plant    	6	tree      	35	tree02      	351	alive    	1	still	0	natural 	1	n	0	0        	 	0.0	0	201.936071000062	202.036080599995	0.100009599933401
169494	100	176	stimuli/animals2/tiger/animal_tiger05.jpg        	1	3	1	animal_tiger05.jpg   	animals2 	1	tiger     	33	tiger05     	334	alive    	1	moves	1	natural 	1	n	0	0        	 	0.0	0	202.086077200016	202.186085800058	0.100008600042202
169644	100	177	stimuli/animals/eagle/animal_eagle05.jpg         	1	3	1	animal_eagle05.jpg   	animals  	0	eagle     	13	eagle05     	134	alive    	1	moves	1	natural 	1	n	0	0        	 	0.0	0	202.236081000068	202.336073399987	0.0999923999188468
169794	100	178	stimuli/plant2/fern/plant_fern07.jpg             	1	3	1	plant_fern07.jpg     	plant2   	7	fern      	14	fern07      	146	alive    	1	still	0	natural 	1	n	0	0        	 	0.0	0	202.386084400001	202.486078000045	0.0999936000443995
169944	100	179	stimuli/animals/dolphin/animal_dolphin10.jpg     	1	3	1	animal_dolphin10.jpg 	animals  	0	dolphin   	12	dolphin10   	129	alive    	1	moves	1	natural 	1	n	0	0        	 	0.0	0	202.536104100058	202.636082699988	0.0999785999301821
170094	100	180	stimuli/plant2/palmtree/plant_palmtree03.jpg     	1	3	1	plant_palmtree03.jpg 	plant2   	7	palmtree  	27	palmtree03  	272	alive    	1	still	0	natural 	1	n	0	0        	 	0.0	0	202.686093800003	202.786085900036	0.0999921000329778
170244	100	181	stimuli/movArt/car/ma_car03.jpg                  	1	3	1	ma_car03.jpg         	movArt   	2	car       	5	car03       	52	not_alive	0	moves	1	artefact	0	n	0	0        	 	0.0	0	202.836096300045	202.93609740003	0.100001099985093
170394	100	182	stimuli/movArt/car/ma_car08.jpg                  	1	3	1	ma_car08.jpg         	movArt   	2	car       	5	car08       	57	not_alive	0	moves	1	artefact	0	n	0	0        	 	0.0	0	202.986099800095	203.086093200021	0.0999933999264613
170544	100	183	stimuli/plant/tree/plant_tree06.jpg              	1	3	1	plant_tree06.jpg     	plant    	6	tree      	35	tree06      	355	alive    	1	still	0	natural 	1	n	0	0        	 	0.0	0	203.136103900033	203.236096800072	0.0999929000390694
170694	100	184	stimuli/nonmovArt/bench/nma_bench01.jpg          	1	3	1	nma_bench01.jpg      	nonmovArt	4	bench     	1	bench01     	10	not_alive	0	still	0	artefact	0	n	1	0        	 	0.0	0	203.286135200062	203.386100000003	0.0999647999415174
170844	100	185	stimuli/plant/vine/plant_vine06.jpg              	1	3	1	plant_vine06.jpg     	plant    	6	vine      	36	vine06      	365	alive    	1	still	0	natural 	1	n	0	0        	 	0.0	0	203.43611000001	203.53611840005	0.100008400040679
170994	100	186	stimuli/nonmovArt/bench/nma_bench07.jpg          	1	3	1	nma_bench07.jpg      	nonmovArt	4	bench     	1	bench07     	16	not_alive	0	still	0	artefact	0	n	0	1        	f	0.292148899985477	1	203.586116300081	203.686108399997	0.0999920999165624
171144	100	187	stimuli/plant/flower/plant_flower10.jpg          	1	3	1	plant_flower10.jpg   	plant    	6	flower    	16	flower10    	169	alive    	1	still	0	natural 	1	n	0	0        	 	0.0	0	203.73612050002	203.83611230005	0.0999918000306934
171294	100	188	stimuli/movNat/river/mn_river04.jpg              	1	3	1	mn_river04.jpg       	movNat   	3	river     	29	river04     	293	not_alive	0	moves	1	natural 	1	n	0	0        	 	0.0	0	203.886137400055	203.986113900086	0.099976500030607
171444	100	189	stimuli/movNat/waves/mn_waves04.jpg              	1	3	1	mn_waves04.jpg       	movNat   	3	waves     	38	waves04     	383	not_alive	0	moves	1	natural 	1	n	0	0        	 	0.0	0	204.036144100013	204.136118900031	0.0999748000176624
171594	100	190	stimuli/plant/grass/plant_grass05.jpg            	1	3	1	plant_grass05.jpg    	plant    	6	grass     	17	grass05     	174	alive    	1	still	0	natural 	1	n	0	0        	 	0.0	0	204.186129200039	204.28613360005	0.100004400010221
171744	100	191	stimuli/plant/vine/plant_vine10.jpg              	1	3	1	plant_vine10.jpg     	plant    	6	vine      	36	vine10      	369	alive    	1	still	0	natural 	1	n	0	0        	 	0.0	0	204.336133100092	204.436127800029	0.0999946999363601
171894	100	192	stimuli/plant2/clover/plant_clover09.jpg         	1	3	1	plant_clover09.jpg   	plant2   	7	clover    	9	clover09    	98	alive    	1	still	0	natural 	1	n	0	0        	 	0.0	0	204.486135700019	204.586134599987	0.099998899968341
172044	100	193	stimuli/plant2/fern/plant_fern04.jpg             	1	3	1	plant_fern04.jpg     	plant2   	7	fern      	14	fern04      	143	alive    	1	still	0	natural 	1	n	0	0        	 	0.0	0	204.636145099998	204.736132199992	0.0999870999949053
172194	100	194	stimuli/plant/cactus/plant_cactus10.jpg          	1	3	1	plant_cactus10.jpg   	plant    	6	cactus    	4	cactus10    	49	alive    	1	still	0	natural 	1	n	0	0        	 	0.0	0	204.786157199996	204.886137900059	0.0999807000625879
172344	100	195	stimuli/animals2/lemur/animal_lemur09.jpg        	1	3	1	animal_lemur09.jpg   	animals2 	1	lemur     	23	lemur09     	238	alive    	1	moves	1	natural 	1	n	0	0        	 	0.0	0	204.936147400062	205.036140499986	0.0999930999241769
172494	100	196	stimuli/animals/dog/animal_dog06.jpg             	1	3	1	animal_dog06.jpg     	animals  	0	dog       	11	dog06       	115	alive    	1	moves	1	natural 	1	n	0	0        	 	0.0	0	205.086153800017	205.186145000043	0.0999912000261247
172644	100	197	stimuli/nonmovNat/sand/nmn_sand08.jpg            	1	3	1	nmn_sand08.jpg       	nonmovNat	5	sand      	31	sand08      	317	not_alive	0	still	0	natural 	1	n	0	0        	 	0.0	0	205.236154700047	205.336148600094	0.0999939000466838
172794	100	198	stimuli/movArt/boat/ma_boat01.jpg                	1	3	1	ma_boat01.jpg        	movArt   	2	boat      	2	boat01      	20	not_alive	0	moves	1	artefact	0	n	0	0        	 	0.0	0	205.386176700005	205.486150400015	0.0999737000092864
172944	100	199	stimuli/plant2/moss/plant_moss09.jpg             	1	3	1	plant_moss09.jpg     	plant2   	7	moss      	25	moss09      	258	alive    	1	still	0	natural 	1	n	0	0        	 	0.0	0	205.536162700038	205.636157500092	0.0999948000535369
173094	100	200	stimuli/animals/eagle/animal_eagle04.jpg         	1	3	1	animal_eagle04.jpg   	animals  	0	eagle     	13	eagle04     	133	alive    	1	moves	1	natural 	1	n	0	0        	 	0.0	0	205.686168399989	205.786159200012	0.0999908000230789
173244	100	201	stimuli/movNat/river/mn_river10.jpg              	1	3	1	mn_river10.jpg       	movNat   	3	river     	29	river10     	299	not_alive	0	moves	1	natural 	1	n	0	0        	 	0.0	0	205.836170700029	205.936166700092	0.0999960000626743
173394	100	202	stimuli/animals2/pigeon/animal_pigeon02.jpg      	1	3	1	animal_pigeon02.jpg  	animals2 	1	pigeon    	28	pigeon02    	281	alive    	1	moves	1	natural 	1	n	0	0        	 	0.0	0	205.986172600067	206.086166099994	0.0999934999272227
173544	100	203	stimuli/nonmovArt/bench/nma_bench07.jpg          	1	3	1	nma_bench07.jpg      	nonmovArt	4	bench     	1	bench07     	16	not_alive	0	still	0	artefact	0	n	0	0        	 	0.0	0	206.136181800044	206.236176700098	0.0999949000542983
173694	100	204	stimuli/nonmovArt/lock/nma_lock06.jpg            	1	3	1	nma_lock06.jpg       	nonmovArt	4	lock      	24	lock06      	245	not_alive	0	still	0	artefact	0	n	0	0        	 	0.0	0	206.286184600089	206.386173500097	0.0999889000086114
173844	100	205	stimuli/nonmovArt/clothespeg/nma_clothespeg05.jpg	1	3	1	nma_clothespeg05.jpg 	nonmovArt	4	clothespeg	8	clothespeg05	84	not_alive	0	still	0	artefact	0	n	0	0        	 	0.0	0	206.436186100007	206.536177000031	0.0999909000238404
173994	100	206	stimuli/movNat/hotspring/mn_hotspring09.jpg      	1	3	1	mn_hotspring09.jpg   	movNat   	3	hotspring 	21	hotspring09 	218	not_alive	0	moves	1	natural 	1	n	0	0        	 	0.0	0	206.586189300055	206.686180700082	0.0999914000276476
174144	100	207	stimuli/nonmovNat/cliff/nmn_cliff08.jpg          	1	3	1	nmn_cliff08.jpg      	nonmovNat	5	cliff     	7	cliff08     	77	not_alive	0	still	0	natural 	1	n	0	0        	 	0.0	0	206.736193799996	206.836184000014	0.0999902000185102
174294	100	208	stimuli/animals2/tiger/animal_tiger01.jpg        	1	3	1	animal_tiger01.jpg   	animals2 	1	tiger     	33	tiger01     	330	alive    	1	moves	1	natural 	1	n	0	0        	 	0.0	0	206.886196400039	206.986218900071	0.100022500031628
174444	100	209	stimuli/animals/dog/animal_dog05.jpg             	1	3	1	animal_dog05.jpg     	animals  	0	dog       	11	dog05       	114	alive    	1	moves	1	natural 	1	n	0	0        	 	0.0	0	207.036197300069	207.136192900012	0.0999955999432132
174594	100	210	stimuli/movArt/bus/ma_bus04.jpg                  	1	3	1	ma_bus04.jpg         	movArt   	2	bus       	3	bus04       	33	not_alive	0	moves	1	artefact	0	n	1	0        	 	0.0	0	207.186202900019	207.28619870008	0.0999958000611514
174744	100	211	stimuli/movArt/train/ma_train04.jpg              	1	3	1	ma_train04.jpg       	movArt   	2	train     	34	train04     	343	not_alive	0	moves	1	artefact	0	n	0	0        	 	0.0	0	207.336205200059	207.436199599993	0.0999943999340758
174894	100	212	stimuli/animals2/pigeon/animal_pigeon02.jpg      	1	3	1	animal_pigeon02.jpg  	animals2 	1	pigeon    	28	pigeon02    	281	alive    	1	moves	1	natural 	1	n	0	1        	f	0.301871699979529	1	207.486210200004	207.586218600045	0.100008400040679
175044	100	213	stimuli/plant/flower/plant_flower08.jpg          	1	3	1	plant_flower08.jpg   	plant    	6	flower    	16	flower08    	167	alive    	1	still	0	natural 	1	n	0	0        	 	0.0	0	207.636192400008	207.736234700074	0.100042300065979
175194	100	214	stimuli/animals/cat/animal_cat03.jpg             	1	3	1	animal_cat03.jpg     	animals  	0	cat       	6	cat03       	62	alive    	1	moves	1	natural 	1	n	0	0        	 	0.0	0	207.786238200031	207.8862371	0.099998899968341
175344	100	215	stimuli/animals2/lemur/animal_lemur03.jpg        	1	3	1	animal_lemur03.jpg   	animals2 	1	lemur     	23	lemur03     	232	alive    	1	moves	1	natural 	1	n	0	0        	 	0.0	0	207.936244699988	208.036222900031	0.0999782000435516
175494	100	216	stimuli/movNat/river/mn_river01.jpg              	1	3	1	mn_river01.jpg       	movNat   	3	river     	29	river01     	290	not_alive	0	moves	1	natural 	1	n	0	0        	 	0.0	0	208.086240300094	208.186243400094	0.100003100000322
175644	100	217	stimuli/animals2/whale/animal_whale05.jpg        	1	3	1	animal_whale05.jpg   	animals2 	1	whale     	39	whale05     	394	alive    	1	moves	1	natural 	1	n	0	0        	 	0.0	0	208.236250900081	208.336227699998	0.099976799916476
175794	100	218	stimuli/plant/cactus/plant_cactus03.jpg          	1	3	1	plant_cactus03.jpg   	plant    	6	cactus    	4	cactus03    	42	alive    	1	still	0	natural 	1	n	0	0        	 	0.0	0	208.386261300067	208.486253200099	0.0999919000314549
175944	100	219	stimuli/nonmovArt/lock/nma_lock10.jpg            	1	3	1	nma_lock10.jpg       	nonmovArt	4	lock      	24	lock10      	249	not_alive	0	still	0	artefact	0	n	0	0        	 	0.0	0	208.536246500094	208.63623579999	0.0999892998952419
176094	100	220	stimuli/nonmovNat/rock/nmn_rock06.jpg            	1	3	1	nmn_rock06.jpg       	nonmovNat	5	rock      	30	rock06      	305	not_alive	0	still	0	natural 	1	n	0	0        	 	0.0	0	208.686246099998	208.786238800036	0.0999927000375465
176244	100	221	stimuli/nonmovNat/crystal/nmn_crystal10.jpg      	1	3	1	nmn_crystal10.jpg    	nonmovNat	5	crystal   	10	crystal10   	109	not_alive	0	still	0	natural 	1	n	0	0        	 	0.0	0	208.836253300076	208.936243700096	0.0999904000200331
176394	100	222	stimuli/nonmovArt/mug/nma_mug04.jpg              	1	3	1	nma_mug04.jpg        	nonmovArt	4	mug       	26	mug04       	263	not_alive	0	still	0	artefact	0	n	0	0        	 	0.0	0	208.986252300092	209.086262400029	0.100010099937208
176544	100	223	stimuli/movArt/train/ma_train03.jpg              	1	3	1	ma_train03.jpg       	movArt   	2	train     	34	train03     	342	not_alive	0	moves	1	artefact	0	n	0	0        	 	0.0	0	209.136257500038	209.236252600094	0.0999951000558212
176694	100	224	stimuli/movArt/car/ma_car10.jpg                  	1	3	1	ma_car10.jpg         	movArt   	2	car       	5	car10       	59	not_alive	0	moves	1	artefact	0	n	0	0        	 	0.0	0	209.286259700078	209.386253500008	0.0999937999295071
176844	100	225	stimuli/movArt/bus/ma_bus01.jpg                  	1	3	1	ma_bus01.jpg         	movArt   	2	bus       	3	bus01       	30	not_alive	0	moves	1	artefact	0	n	0	0        	 	0.0	0	209.436278400011	209.536256700056	0.0999783000443131
176994	100	226	stimuli/animals2/tiger/animal_tiger06.jpg        	1	3	1	animal_tiger06.jpg   	animals2 	1	tiger     	33	tiger06     	335	alive    	1	moves	1	natural 	1	n	0	0        	 	0.0	0	209.586268600076	209.686261399998	0.0999927999218926
177144	100	227	stimuli/plant/grass/plant_grass05.jpg            	1	3	1	plant_grass05.jpg    	plant    	6	grass     	17	grass05     	174	alive    	1	still	0	natural 	1	n	0	0        	 	0.0	0	209.73629390006	209.836284200079	0.0999903000192717
177294	100	228	stimuli/animals2/pigeon/animal_pigeon01.jpg      	1	3	1	animal_pigeon01.jpg  	animals2 	1	pigeon    	28	pigeon01    	280	alive    	1	moves	1	natural 	1	n	0	0        	 	0.0	0	209.886302900035	209.986272900016	0.0999699999811128
177444	100	229	stimuli/plant2/palmtree/plant_palmtree02.jpg     	1	3	1	plant_palmtree02.jpg 	plant2   	7	palmtree  	27	palmtree02  	271	alive    	1	still	0	natural 	1	n	0	0        	 	0.0	0	210.036277400097	210.136289000046	0.10001159994863
177594	100	230	stimuli/nonmovArt/headphones/nma_headphones03.jpg	1	3	1	nma_headphones03.jpg 	nonmovArt	4	headphones	18	headphones03	182	not_alive	0	still	0	artefact	0	n	0	0        	 	0.0	0	210.18628740008	210.286278299987	0.099990899907425
177744	100	231	stimuli/animals2/lemur/animal_lemur04.jpg        	1	3	1	animal_lemur04.jpg   	animals2 	1	lemur     	23	lemur04     	233	alive    	1	moves	1	natural 	1	n	0	0        	 	0.0	0	210.336310000042	210.436280500027	0.09997049998492
177894	100	232	stimuli/movNat/waterfall/mn_waterfall06.jpg      	1	3	1	mn_waterfall06.jpg   	movNat   	3	waterfall 	37	waterfall06 	375	not_alive	0	moves	1	natural 	1	n	0	0        	 	0.0	0	210.486290600034	210.586283800076	0.0999932000413537
178044	100	233	stimuli/plant2/moss/plant_moss01.jpg             	1	3	1	plant_moss01.jpg     	plant2   	7	moss      	25	moss01      	250	alive    	1	still	0	natural 	1	n	0	0        	 	0.0	0	210.6362961001	210.73630920006	0.100013099960051
178194	100	234	stimuli/movNat/hotspring/mn_hotspring06.jpg      	1	3	1	mn_hotspring06.jpg   	movNat   	3	hotspring 	21	hotspring06 	215	not_alive	0	moves	1	natural 	1	n	0	0        	 	0.0	0	210.786313800025	210.886294300086	0.099980500061065
178344	100	235	stimuli/movNat/fire/mn_fire02.jpg                	1	3	1	mn_fire02.jpg        	movNat   	3	fire      	15	fire02      	151	not_alive	0	moves	1	natural 	1	n	0	0        	 	0.0	0	210.93631530006	211.036297000013	0.099981699953787
178494	100	236	stimuli/nonmovNat/cliff/nmn_cliff04.jpg          	1	3	1	nmn_cliff04.jpg      	nonmovNat	5	cliff     	7	cliff04     	73	not_alive	0	still	0	natural 	1	n	0	0        	 	0.0	0	211.08630970004	211.186298400047	0.0999887000070885
178644	100	237	stimuli/nonmovNat/crystal/nmn_crystal05.jpg      	1	3	1	nmn_crystal05.jpg    	nonmovNat	5	crystal   	10	crystal05   	104	not_alive	0	still	0	natural 	1	n	0	0        	 	0.0	0	211.236309400061	211.336303799995	0.0999943999340758
178794	100	238	stimuli/movArt/helicopter/ma_helicopter01.jpg    	1	3	1	ma_helicopter01.jpg  	movArt   	2	helicopter	19	helicopter01	190	not_alive	0	moves	1	artefact	0	n	0	0        	 	0.0	0	211.386312499992	211.486320100026	0.100007600034587
178944	100	239	stimuli/plant/vine/plant_vine10.jpg              	1	3	1	plant_vine10.jpg     	plant    	6	vine      	36	vine10      	369	alive    	1	still	0	natural 	1	n	0	0        	 	0.0	0	211.536336100078	211.636310400092	0.0999743000138551
184328	100	240	stimuli/nonmovArt/headphones/nma_headphones09.jpg	1	4	1	nma_headphones09.jpg 	nonmovArt	4	headphones	18	headphones09	188	not_alive	0	still	0	artefact	0	n	0	0        	 	0.0	0	216.919779399992	217.019783600001	0.100004200008698
184478	100	241	stimuli/movArt/train/ma_train02.jpg              	1	4	1	ma_train02.jpg       	movArt   	2	train     	34	train02     	341	not_alive	0	moves	1	artefact	0	n	0	0        	 	0.0	0	217.069782000035	217.169776400086	0.0999944000504911
184628	100	242	stimuli/nonmovArt/mug/nma_mug10.jpg              	1	4	1	nma_mug10.jpg        	nonmovArt	4	mug       	26	mug10       	269	not_alive	0	still	0	artefact	0	n	0	0        	 	0.0	0	217.219783200067	217.319776799995	0.0999935999279842
184778	100	243	stimuli/plant2/fern/plant_fern09.jpg             	1	4	1	plant_fern09.jpg     	plant2   	7	fern      	14	fern09      	148	alive    	1	still	0	natural 	1	n	0	0        	 	0.0	0	217.369788700016	217.469785200083	0.0999965000664815
184928	100	244	stimuli/movNat/hotspring/mn_hotspring02.jpg      	1	4	1	mn_hotspring02.jpg   	movNat   	3	hotspring 	21	hotspring02 	211	not_alive	0	moves	1	natural 	1	n	0	0        	 	0.0	0	217.519816900021	217.619783000089	0.0999661000678316
185078	100	245	stimuli/nonmovNat/sand/nmn_sand07.jpg            	1	4	1	nmn_sand07.jpg       	nonmovNat	5	sand      	31	sand07      	316	not_alive	0	still	0	natural 	1	n	0	0        	 	0.0	0	217.66979970003	217.769793400075	0.099993700045161
185228	100	246	stimuli/plant2/clover/plant_clover08.jpg         	1	4	1	plant_clover08.jpg   	plant2   	7	clover    	9	clover08    	97	alive    	1	still	0	natural 	1	n	0	0        	 	0.0	0	217.819797000033	217.919791400083	0.0999944000504911
185378	100	247	stimuli/nonmovArt/clothespeg/nma_clothespeg10.jpg	1	4	1	nma_clothespeg10.jpg 	nonmovArt	4	clothespeg	8	clothespeg10	89	not_alive	0	still	0	artefact	0	n	0	0        	 	0.0	0	217.969804799999	218.069796200027	0.0999914000276476
185528	100	248	stimuli/plant2/fern/plant_fern05.jpg             	1	4	1	plant_fern05.jpg     	plant2   	7	fern      	14	fern05      	144	alive    	1	still	0	natural 	1	n	0	0        	 	0.0	0	218.119829600095	218.219797900063	0.0999682999681681
185678	100	249	stimuli/nonmovNat/rock/nmn_rock03.jpg            	1	4	1	nmn_rock03.jpg       	nonmovNat	5	rock      	30	rock03      	302	not_alive	0	still	0	natural 	1	n	0	0        	 	0.0	0	218.269826700096	218.369804000016	0.0999772999202833
185828	100	250	stimuli/plant2/clover/plant_clover05.jpg         	1	4	1	plant_clover05.jpg   	plant2   	7	clover    	9	clover05    	94	alive    	1	still	0	natural 	1	n	0	0        	 	0.0	0	218.419810199994	218.51980410004	0.0999939000466838
185978	100	251	stimuli/plant2/palmtree/plant_palmtree09.jpg     	1	4	1	plant_palmtree09.jpg 	plant2   	7	palmtree  	27	palmtree09  	278	alive    	1	still	0	natural 	1	n	0	0        	 	0.0	0	218.56981720007	218.669814200024	0.0999969999538735
186128	100	252	stimuli/nonmovArt/mug/nma_mug05.jpg              	1	4	1	nma_mug05.jpg        	nonmovArt	4	mug       	26	mug05       	264	not_alive	0	still	0	artefact	0	n	0	0        	 	0.0	0	218.719821000006	218.819812900038	0.0999919000314549
186278	100	253	stimuli/nonmovArt/headphones/nma_headphones10.jpg	1	4	1	nma_headphones10.jpg 	nonmovArt	4	headphones	18	headphones10	189	not_alive	0	still	0	artefact	0	n	0	0        	 	0.0	0	218.869836800033	218.969819399994	0.0999825999606401
186428	100	254	stimuli/plant2/palmtree/plant_palmtree06.jpg     	1	4	1	plant_palmtree06.jpg 	plant2   	7	palmtree  	27	palmtree06  	275	alive    	1	still	0	natural 	1	n	0	0        	 	0.0	0	219.019829099998	219.11981980002	0.0999907000223175
186578	100	255	stimuli/nonmovArt/lock/nma_lock03.jpg            	1	4	1	nma_lock03.jpg       	nonmovArt	4	lock      	24	lock03      	242	not_alive	0	still	0	artefact	0	n	0	0        	 	0.0	0	219.169833000051	219.2698294	0.0999963999493048
186728	100	256	stimuli/plant2/lemontree/plant_lemontree06.jpg   	1	4	1	plant_lemontree06.jpg	plant2   	7	lemontree 	22	lemontree06 	225	alive    	1	still	0	natural 	1	n	0	0        	 	0.0	0	219.319834900089	219.419827700011	0.0999927999218926
186878	100	257	stimuli/movNat/river/mn_river06.jpg              	1	4	1	mn_river06.jpg       	movNat   	3	river     	29	river06     	295	not_alive	0	moves	1	natural 	1	n	0	0        	 	0.0	0	219.469838900026	219.569832300069	0.0999934000428766
187028	100	258	stimuli/plant2/lemontree/plant_lemontree07.jpg   	1	4	1	plant_lemontree07.jpg	plant2   	7	lemontree 	22	lemontree07 	226	alive    	1	still	0	natural 	1	n	0	0        	 	0.0	0	219.619842500077	219.719835800002	0.0999932999256998
187178	100	259	stimuli/animals/dog/animal_dog04.jpg             	1	4	1	animal_dog04.jpg     	animals  	0	dog       	11	dog04       	113	alive    	1	moves	1	natural 	1	n	0	0        	 	0.0	0	219.769846500014	219.869841500069	0.0999950000550598
187328	100	260	stimuli/movNat/waterfall/mn_waterfall03.jpg      	1	4	1	mn_waterfall03.jpg   	movNat   	3	waterfall 	37	waterfall03 	372	not_alive	0	moves	1	natural 	1	n	0	0        	 	0.0	0	219.919847500045	220.019841900095	0.0999944000504911
187478	100	261	stimuli/plant/tree/plant_tree01.jpg              	1	4	1	plant_tree01.jpg     	plant    	6	tree      	35	tree01      	350	alive    	1	still	0	natural 	1	n	0	0        	 	0.0	0	220.069853099994	220.169849200058	0.0999961000634357
187628	100	262	stimuli/nonmovArt/bench/nma_bench04.jpg          	1	4	1	nma_bench04.jpg      	nonmovArt	4	bench     	1	bench04     	13	not_alive	0	still	0	artefact	0	n	0	0        	 	0.0	0	220.219858100056	220.319849300082	0.0999912000261247
187778	100	263	stimuli/nonmovArt/mug/nma_mug04.jpg              	1	4	1	nma_mug04.jpg        	nonmovArt	4	mug       	26	mug04       	263	not_alive	0	still	0	artefact	0	n	0	0        	 	0.0	0	220.369862699998	220.469860800076	0.0999981000786647
187928	100	264	stimuli/nonmovArt/bench/nma_bench10.jpg          	1	4	1	nma_bench10.jpg      	nonmovArt	4	bench     	1	bench10     	19	not_alive	0	still	0	artefact	0	n	0	0        	 	0.0	0	220.519862100016	220.619887100067	0.100025000050664
188078	100	265	stimuli/animals2/lemur/animal_lemur09.jpg        	1	4	1	animal_lemur09.jpg   	animals2 	1	lemur     	23	lemur09     	238	alive    	1	moves	1	natural 	1	n	0	0        	 	0.0	0	220.669869700097	220.769864500035	0.0999947999371216
188228	100	266	stimuli/movArt/bus/ma_bus09.jpg                  	1	4	1	ma_bus09.jpg         	movArt   	2	bus       	3	bus09       	38	not_alive	0	moves	1	artefact	0	n	0	0        	 	0.0	0	220.819873800036	220.919862600043	0.0999888000078499
188378	100	267	stimuli/animals/horse/animal_horse06.jpg         	1	4	1	animal_horse06.jpg   	animals  	0	horse     	20	horse06     	205	alive    	1	moves	1	natural 	1	n	0	0        	 	0.0	0	220.969878700096	221.069867599988	0.0999888998921961
188528	100	268	stimuli/movNat/fire/mn_fire05.jpg                	1	4	1	mn_fire05.jpg        	movNat   	3	fire      	15	fire05      	154	not_alive	0	moves	1	natural 	1	n	0	0        	 	0.0	0	221.119878500001	221.219877100084	0.099998600082472
188678	100	269	stimuli/plant/vine/plant_vine04.jpg              	1	4	1	plant_vine04.jpg     	plant    	6	vine      	36	vine04      	363	alive    	1	still	0	natural 	1	n	0	0        	 	0.0	0	221.269886100083	221.369879100006	0.0999929999234155
188828	100	270	stimuli/animals/horse/animal_horse01.jpg         	1	4	1	animal_horse01.jpg   	animals  	0	horse     	20	horse01     	200	alive    	1	moves	1	natural 	1	n	0	0        	 	0.0	0	221.419886299991	221.519877200015	0.0999909000238404
188978	100	271	stimuli/movNat/waves/mn_waves03.jpg              	1	4	1	mn_waves03.jpg       	movNat   	3	waves     	38	waves03     	382	not_alive	0	moves	1	natural 	1	n	0	0        	 	0.0	0	221.569892400061	221.669889200013	0.0999967999523506
189128	100	272	stimuli/movNat/hotspring/mn_hotspring06.jpg      	1	4	1	mn_hotspring06.jpg   	movNat   	3	hotspring 	21	hotspring06 	215	not_alive	0	moves	1	natural 	1	n	0	0        	 	0.0	0	221.719894200098	221.819902100018	0.100007899920456
189278	100	273	stimuli/movNat/fire/mn_fire10.jpg                	1	4	1	mn_fire10.jpg        	movNat   	3	fire      	15	fire10      	159	not_alive	0	moves	1	natural 	1	n	0	0        	 	0.0	0	221.869899700046	221.969917600043	0.100017899996601
189428	100	274	stimuli/plant2/lemontree/plant_lemontree04.jpg   	1	4	1	plant_lemontree04.jpg	plant2   	7	lemontree 	22	lemontree04 	223	alive    	1	still	0	natural 	1	n	0	0        	 	0.0	0	222.019902100088	222.119893800002	0.0999916999135166
189578	100	275	stimuli/plant/grass/plant_grass10.jpg            	1	4	1	plant_grass10.jpg    	plant    	6	grass     	17	grass10     	179	alive    	1	still	0	natural 	1	n	0	0        	 	0.0	0	222.169906500028	222.269899300067	0.0999928000383079
189728	100	276	stimuli/animals/dog/animal_dog01.jpg             	1	4	1	animal_dog01.jpg     	animals  	0	dog       	11	dog01       	110	alive    	1	moves	1	natural 	1	n	0	0        	 	0.0	0	222.319919100031	222.419900700101	0.0999816000694409
189878	100	277	stimuli/nonmovNat/shell/nmn_shell08.jpg          	1	4	1	nmn_shell08.jpg      	nonmovNat	5	shell     	32	shell08     	327	not_alive	0	still	0	natural 	1	n	0	0        	 	0.0	0	222.469915200025	222.569914199994	0.0999989999691024
190028	100	278	stimuli/animals/dog/animal_dog10.jpg             	1	4	1	animal_dog10.jpg     	animals  	0	dog       	11	dog10       	119	alive    	1	moves	1	natural 	1	n	0	0        	 	0.0	0	222.619913700037	222.719921600074	0.100007900036871
190178	100	279	stimuli/animals/dolphin/animal_dolphin04.jpg     	1	4	1	animal_dolphin04.jpg 	animals  	0	dolphin   	12	dolphin04   	123	alive    	1	moves	1	natural 	1	n	0	0        	 	0.0	0	222.769925900036	222.86991810007	0.0999922000337392
190328	100	280	stimuli/movArt/helicopter/ma_helicopter10.jpg    	1	4	1	ma_helicopter10.jpg  	movArt   	2	helicopter	19	helicopter10	199	not_alive	0	moves	1	artefact	0	n	0	0        	 	0.0	0	222.919928800082	223.019915500074	0.0999866999918595
190478	100	281	stimuli/animals/eagle/animal_eagle03.jpg         	1	4	1	animal_eagle03.jpg   	animals  	0	eagle     	13	eagle03     	132	alive    	1	moves	1	natural 	1	n	0	0        	 	0.0	0	223.069956300082	223.169921000022	0.099964699940756
190628	100	282	stimuli/plant/flower/plant_flower08.jpg          	1	4	1	plant_flower08.jpg   	plant    	6	flower    	16	flower08    	167	alive    	1	still	0	natural 	1	n	1	0        	 	0.0	0	223.219931600033	223.319928699988	0.0999970999546349
190778	100	283	stimuli/nonmovArt/clothespeg/nma_clothespeg10.jpg	1	4	1	nma_clothespeg10.jpg 	nonmovArt	4	clothespeg	8	clothespeg10	89	not_alive	0	still	0	artefact	0	n	0	0        	 	0.0	0	223.369936900097	223.469933300046	0.0999963999493048
190928	100	284	stimuli/animals2/bee/animal_bee09.jpg            	1	4	1	animal_bee09.jpg     	animals2 	1	bee       	0	bee09       	8	alive    	1	moves	1	natural 	1	n	0	1        	f	0.306112900027074	1	223.519940800033	223.619932200061	0.0999914000276476
191078	100	285	stimuli/movNat/fire/mn_fire04.jpg                	1	4	1	mn_fire04.jpg        	movNat   	3	fire      	15	fire04      	153	not_alive	0	moves	1	natural 	1	n	0	0        	 	0.0	0	223.669974300079	223.769937500008	0.0999631999293342
191228	100	286	stimuli/animals/cat/animal_cat10.jpg             	1	4	1	animal_cat10.jpg     	animals  	0	cat       	6	cat10       	69	alive    	1	moves	1	natural 	1	n	0	0        	 	0.0	0	223.819936500047	223.919938900042	0.100002399994992
191378	100	287	stimuli/animals2/whale/animal_whale04.jpg        	1	4	1	animal_whale04.jpg   	animals2 	1	whale     	39	whale04     	393	alive    	1	moves	1	natural 	1	n	0	0        	 	0.0	0	223.969952100073	224.069944999996	0.099992899922654
191528	100	288	stimuli/animals/eagle/animal_eagle09.jpg         	1	4	1	animal_eagle09.jpg   	animals  	0	eagle     	13	eagle09     	138	alive    	1	moves	1	natural 	1	n	0	0        	 	0.0	0	224.119952100096	224.219944900018	0.0999927999218926
191678	100	289	stimuli/animals2/tiger/animal_tiger10.jpg        	1	4	1	animal_tiger10.jpg   	animals2 	1	tiger     	33	tiger10     	339	alive    	1	moves	1	natural 	1	n	0	0        	 	0.0	0	224.269958600053	224.369953799993	0.0999951999401674
191828	100	290	stimuli/plant/flower/plant_flower05.jpg          	1	4	1	plant_flower05.jpg   	plant    	6	flower    	16	flower05    	164	alive    	1	still	0	natural 	1	n	0	0        	 	0.0	0	224.419977399986	224.519953500014	0.0999761000275612
191978	100	291	stimuli/animals2/lemur/animal_lemur01.jpg        	1	4	1	animal_lemur01.jpg   	animals2 	1	lemur     	23	lemur01     	230	alive    	1	moves	1	natural 	1	n	0	0        	 	0.0	0	224.569976900006	224.669960600091	0.0999837000854313
192128	100	292	stimuli/movArt/bus/ma_bus01.jpg                  	1	4	1	ma_bus01.jpg         	movArt   	2	bus       	3	bus01       	30	not_alive	0	moves	1	artefact	0	n	0	0        	 	0.0	0	224.719968800084	224.819960499997	0.0999916999135166
192278	100	293	stimuli/animals/cat/animal_cat04.jpg             	1	4	1	animal_cat04.jpg     	animals  	0	cat       	6	cat04       	63	alive    	1	moves	1	natural 	1	n	0	0        	 	0.0	0	224.869974300032	224.969966700068	0.0999924000352621
192428	100	294	stimuli/nonmovArt/lock/nma_lock08.jpg            	1	4	1	nma_lock08.jpg       	nonmovArt	4	lock      	24	lock08      	247	not_alive	0	still	0	artefact	0	n	0	0        	 	0.0	0	225.019974700059	225.119970900007	0.0999961999477819
192578	100	295	stimuli/nonmovNat/crystal/nmn_crystal06.jpg      	1	4	1	nmn_crystal06.jpg    	nonmovNat	5	crystal   	10	crystal06   	105	not_alive	0	still	0	natural 	1	n	0	0        	 	0.0	0	225.170003800071	225.269974500057	0.0999706999864429
192728	100	296	stimuli/movArt/boat/ma_boat01.jpg                	1	4	1	ma_boat01.jpg        	movArt   	2	boat      	2	boat01      	20	not_alive	0	moves	1	artefact	0	n	0	0        	 	0.0	0	225.319982000045	225.419975000084	0.0999930000398308
192878	100	297	stimuli/nonmovNat/crystal/nmn_crystal02.jpg      	1	4	1	nmn_crystal02.jpg    	nonmovNat	5	crystal   	10	crystal02   	101	not_alive	0	still	0	natural 	1	n	0	0        	 	0.0	0	225.469989100005	225.569982900051	0.0999938000459224
193028	100	298	stimuli/plant2/moss/plant_moss08.jpg             	1	4	1	plant_moss08.jpg     	plant2   	7	moss      	25	moss08      	257	alive    	1	still	0	natural 	1	n	0	0        	 	0.0	0	225.619991100044	225.719982000068	0.0999909000238404
193178	100	299	stimuli/nonmovNat/cliff/nmn_cliff02.jpg          	1	4	1	nmn_cliff02.jpg      	nonmovNat	5	cliff     	7	cliff02     	71	not_alive	0	still	0	natural 	1	n	0	0        	 	0.0	0	225.769996699994	225.869988100021	0.0999914000276476
193328	100	300	stimuli/movNat/river/mn_river08.jpg              	1	4	1	mn_river08.jpg       	movNat   	3	river     	29	river08     	297	not_alive	0	moves	1	natural 	1	n	0	0        	 	0.0	0	225.919996700017	226.019988600048	0.0999919000314549
193478	100	301	stimuli/animals/horse/animal_horse08.jpg         	1	4	1	animal_horse08.jpg   	animals  	0	horse     	20	horse08     	207	alive    	1	moves	1	natural 	1	n	1	0        	 	0.0	0	226.070004100096	226.169997800025	0.0999936999287456
193628	100	302	stimuli/animals2/whale/animal_whale10.jpg        	1	4	1	animal_whale10.jpg   	animals2 	1	whale     	39	whale10     	399	alive    	1	moves	1	natural 	1	n	0	0        	 	0.0	0	226.220003099996	226.320001800079	0.0999987000832334
193778	100	303	stimuli/plant2/palmtree/plant_palmtree04.jpg     	1	4	1	plant_palmtree04.jpg 	plant2   	7	palmtree  	27	palmtree04  	273	alive    	1	still	0	natural 	1	n	0	1        	f	0.391965399961919	1	226.370009700069	226.470005100011	0.0999953999416903
193928	100	304	stimuli/plant2/moss/plant_moss09.jpg             	1	4	1	plant_moss09.jpg     	plant2   	7	moss      	25	moss09      	258	alive    	1	still	0	natural 	1	n	0	0        	 	0.0	0	226.520010600099	226.620005200035	0.0999945999355987
194078	100	305	stimuli/nonmovNat/shell/nmn_shell06.jpg          	1	4	1	nmn_shell06.jpg      	nonmovNat	5	shell     	32	shell06     	325	not_alive	0	still	0	natural 	1	n	1	0        	 	0.0	0	226.670018200064	226.770040400093	0.100022200029343
194228	100	306	stimuli/plant/grass/plant_grass04.jpg            	1	4	1	plant_grass04.jpg    	plant    	6	grass     	17	grass04     	173	alive    	1	still	0	natural 	1	n	0	0        	 	0.0	0	226.820019200095	226.920016700053	0.0999974999576807
194378	100	307	stimuli/plant/tree/plant_tree08.jpg              	1	4	1	plant_tree08.jpg     	plant    	6	tree      	35	tree08      	357	alive    	1	still	0	natural 	1	n	0	1        	f	0.39197170000989	1	226.970027100062	227.070020999992	0.0999938999302685
194528	100	308	stimuli/animals2/pigeon/animal_pigeon07.jpg      	1	4	1	animal_pigeon07.jpg  	animals2 	1	pigeon    	28	pigeon07    	286	alive    	1	moves	1	natural 	1	n	0	0        	 	0.0	0	227.120030599996	227.220018699998	0.0999881000025198
194678	100	309	stimuli/animals2/tiger/animal_tiger07.jpg        	1	4	1	animal_tiger07.jpg   	animals2 	1	tiger     	33	tiger07     	336	alive    	1	moves	1	natural 	1	n	0	0        	 	0.0	0	227.27003600006	227.370025200071	0.0999892000108957
194828	100	310	stimuli/nonmovNat/crystal/nmn_crystal02.jpg      	1	4	1	nmn_crystal02.jpg    	nonmovNat	5	crystal   	10	crystal02   	101	not_alive	0	still	0	natural 	1	n	0	0        	 	0.0	0	227.420032800059	227.520057699992	0.100024899933487
194978	100	311	stimuli/plant/flower/plant_flower08.jpg          	1	4	1	plant_flower08.jpg   	plant    	6	flower    	16	flower08    	167	alive    	1	still	0	natural 	1	n	0	0        	 	0.0	0	227.570040500024	227.67003300006	0.0999925000360236
195128	100	312	stimuli/plant/vine/plant_vine07.jpg              	1	4	1	plant_vine07.jpg     	plant    	6	vine      	36	vine07      	366	alive    	1	still	0	natural 	1	n	0	0        	 	0.0	0	227.72004610009	227.820034500095	0.0999884000048041
195278	100	313	stimuli/movArt/boat/ma_boat02.jpg                	1	4	1	ma_boat02.jpg        	movArt   	2	boat      	2	boat02      	21	not_alive	0	moves	1	artefact	0	n	0	0        	 	0.0	0	227.870055500069	227.970041800058	0.0999862999888137
195428	100	314	stimuli/movArt/train/ma_train06.jpg              	1	4	1	ma_train06.jpg       	movArt   	2	train     	34	train06     	345	not_alive	0	moves	1	artefact	0	n	0	0        	 	0.0	0	228.020049400046	228.120070000063	0.10002060001716
195578	100	315	stimuli/movNat/waterfall/mn_waterfall09.jpg      	1	4	1	mn_waterfall09.jpg   	movNat   	3	waterfall 	37	waterfall09 	378	not_alive	0	moves	1	natural 	1	n	0	0        	 	0.0	0	228.170054999995	228.270060400013	0.100005400017835
195728	100	316	stimuli/nonmovArt/clothespeg/nma_clothespeg03.jpg	1	4	1	nma_clothespeg03.jpg 	nonmovArt	4	clothespeg	8	clothespeg03	82	not_alive	0	still	0	artefact	0	n	0	0        	 	0.0	0	228.320055700024	228.42005090008	0.0999952000565827
195878	100	317	stimuli/animals/eagle/animal_eagle09.jpg         	1	4	1	animal_eagle09.jpg   	animals  	0	eagle     	13	eagle09     	138	alive    	1	moves	1	natural 	1	n	0	0        	 	0.0	0	228.470065400004	228.570055700024	0.0999903000192717
196028	100	318	stimuli/animals/cat/animal_cat09.jpg             	1	4	1	animal_cat09.jpg     	animals  	0	cat       	6	cat09       	68	alive    	1	moves	1	natural 	1	n	0	0        	 	0.0	0	228.620076299994	228.72006000008	0.0999837000854313
196178	100	319	stimuli/movArt/train/ma_train01.jpg              	1	4	1	ma_train01.jpg       	movArt   	2	train     	34	train01     	340	not_alive	0	moves	1	artefact	0	n	0	0        	 	0.0	0	228.770069300081	228.870075199986	0.100005899905227
206011	100	320	stimuli/plant/vine/plant_vine04.jpg              	1	5	1	plant_vine04.jpg     	plant    	6	vine      	36	vine04      	363	alive    	1	still	0	natural 	1	n	0	0        	 	0.0	0	238.603655399987	238.7036427001	0.0999873001128435
206161	100	321	stimuli/nonmovNat/cliff/nmn_cliff09.jpg          	1	5	1	nmn_cliff09.jpg      	nonmovNat	5	cliff     	7	cliff09     	78	not_alive	0	still	0	natural 	1	n	0	0        	 	0.0	0	238.753652000101	238.853674400016	0.100022399914451
206311	100	322	stimuli/nonmovArt/lock/nma_lock07.jpg            	1	5	1	nma_lock07.jpg       	nonmovArt	4	lock      	24	lock07      	246	not_alive	0	still	0	artefact	0	n	0	0        	 	0.0	0	238.903654000023	239.003646300058	0.0999923000345007
206461	100	323	stimuli/plant2/fern/plant_fern09.jpg             	1	5	1	plant_fern09.jpg     	plant2   	7	fern      	14	fern09      	148	alive    	1	still	0	natural 	1	n	0	0        	 	0.0	0	239.053656700067	239.153653000016	0.0999962999485433
206611	100	324	stimuli/movArt/car/ma_car01.jpg                  	1	5	1	ma_car01.jpg         	movArt   	2	car       	5	car01       	50	not_alive	0	moves	1	artefact	0	n	0	0        	 	0.0	0	239.203661600011	239.30365450005	0.0999929000390694
206761	100	325	stimuli/animals2/bee/animal_bee09.jpg            	1	5	1	animal_bee09.jpg     	animals2 	1	bee       	0	bee09       	8	alive    	1	moves	1	natural 	1	n	0	0        	 	0.0	0	239.35366360005	239.453673599986	0.100009999936447
206911	100	326	stimuli/movArt/car/ma_car06.jpg                  	1	5	1	ma_car06.jpg         	movArt   	2	car       	5	car06       	55	not_alive	0	moves	1	artefact	0	n	0	0        	 	0.0	0	239.503668799996	239.60369150003	0.100022700033151
207061	100	327	stimuli/animals/dolphin/animal_dolphin09.jpg     	1	5	1	animal_dolphin09.jpg 	animals  	0	dolphin   	12	dolphin09   	128	alive    	1	moves	1	natural 	1	n	0	0        	 	0.0	0	239.653672500048	239.75366799999	0.0999954999424517
207211	100	328	stimuli/movArt/helicopter/ma_helicopter01.jpg    	1	5	1	ma_helicopter01.jpg  	movArt   	2	helicopter	19	helicopter01	190	not_alive	0	moves	1	artefact	0	n	0	0        	 	0.0	0	239.803675200092	239.903669200023	0.09999399993103
207361	100	329	stimuli/nonmovNat/sand/nmn_sand04.jpg            	1	5	1	nmn_sand04.jpg       	nonmovNat	5	sand      	31	sand04      	313	not_alive	0	still	0	natural 	1	n	0	0        	 	0.0	0	239.953682400053	240.053673200076	0.0999908000230789
207511	100	330	stimuli/plant/cactus/plant_cactus01.jpg          	1	5	1	plant_cactus01.jpg   	plant    	6	cactus    	4	cactus01    	40	alive    	1	still	0	natural 	1	n	0	0        	 	0.0	0	240.103683200083	240.203683900065	0.100000699982047
207661	100	331	stimuli/movArt/helicopter/ma_helicopter08.jpg    	1	5	1	ma_helicopter08.jpg  	movArt   	2	helicopter	19	helicopter08	197	not_alive	0	moves	1	artefact	0	n	0	0        	 	0.0	0	240.253686300013	240.35369290004	0.100006600026973
207811	100	332	stimuli/movNat/waves/mn_waves02.jpg              	1	5	1	mn_waves02.jpg       	movNat   	3	waves     	38	waves02     	381	not_alive	0	moves	1	natural 	1	n	0	0        	 	0.0	0	240.403690900072	240.503685700009	0.0999947999371216
207961	100	333	stimuli/movNat/waves/mn_waves06.jpg              	1	5	1	mn_waves06.jpg       	movNat   	3	waves     	38	waves06     	385	not_alive	0	moves	1	natural 	1	n	0	0        	 	0.0	0	240.55369640002	240.653688600054	0.0999922000337392
208112	100	334	stimuli/nonmovNat/cliff/nmn_cliff05.jpg          	1	5	1	nmn_cliff05.jpg      	nonmovNat	5	cliff     	7	cliff05     	74	not_alive	0	still	0	natural 	1	n	0	0        	 	0.0	0	240.703730300069	240.803714800044	0.0999844999751076
208262	100	335	stimuli/movNat/hotspring/mn_hotspring08.jpg      	1	5	1	mn_hotspring08.jpg   	movNat   	3	hotspring 	21	hotspring08 	217	not_alive	0	moves	1	natural 	1	n	0	0        	 	0.0	0	240.853721300024	240.953721500002	0.10000019997824
208412	100	336	stimuli/animals2/pigeon/animal_pigeon09.jpg      	1	5	1	animal_pigeon09.jpg  	animals2 	1	pigeon    	28	pigeon09    	288	alive    	1	moves	1	natural 	1	n	1	0        	 	0.0	0	241.003723300062	241.103716999991	0.0999936999287456
208562	100	337	stimuli/animals2/whale/animal_whale07.jpg        	1	5	1	animal_whale07.jpg   	animals2 	1	whale     	39	whale07     	396	alive    	1	moves	1	natural 	1	n	1	1        	f	0.105346899945289	1	241.153724400094	241.253716600011	0.0999921999173239
208712	100	338	stimuli/animals/dolphin/animal_dolphin07.jpg     	1	5	1	animal_dolphin07.jpg 	animals  	0	dolphin   	12	dolphin07   	126	alive    	1	moves	1	natural 	1	n	0	0        	 	0.0	0	241.3037528001	241.403719200054	0.0999663999537006
208862	100	339	stimuli/animals2/tiger/animal_tiger02.jpg        	1	5	1	animal_tiger02.jpg   	animals2 	1	tiger     	33	tiger02     	331	alive    	1	moves	1	natural 	1	n	0	0        	 	0.0	0	241.453733600094	241.553723899997	0.0999902999028564
209012	100	340	stimuli/movArt/car/ma_car02.jpg                  	1	5	1	ma_car02.jpg         	movArt   	2	car       	5	car02       	51	not_alive	0	moves	1	artefact	0	n	0	1        	f	0.442091499920934	1	241.60373480001	241.703732200083	0.0999974000733346
209162	100	341	stimuli/plant2/clover/plant_clover05.jpg         	1	5	1	plant_clover05.jpg   	plant2   	7	clover    	9	clover05    	94	alive    	1	still	0	natural 	1	n	0	0        	 	0.0	0	241.753726000083	241.853743100073	0.100017099990509
209312	100	342	stimuli/plant/cactus/plant_cactus06.jpg          	1	5	1	plant_cactus06.jpg   	plant    	6	cactus    	4	cactus06    	45	alive    	1	still	0	natural 	1	n	0	0        	 	0.0	0	241.903737300076	242.003726600087	0.0999893000116572
209462	100	343	stimuli/nonmovNat/sand/nmn_sand02.jpg            	1	5	1	nmn_sand02.jpg       	nonmovNat	5	sand      	31	sand02      	311	not_alive	0	still	0	natural 	1	n	0	0        	 	0.0	0	242.053738999995	242.153734500054	0.099995500058867
209612	100	344	stimuli/plant2/moss/plant_moss06.jpg             	1	5	1	plant_moss06.jpg     	plant2   	7	moss      	25	moss06      	255	alive    	1	still	0	natural 	1	n	0	0        	 	0.0	0	242.203747200081	242.303735000081	0.0999878000002354
209762	100	345	stimuli/plant/tree/plant_tree07.jpg              	1	5	1	plant_tree07.jpg     	plant    	6	tree      	35	tree07      	356	alive    	1	still	0	natural 	1	n	1	0        	 	0.0	0	242.353762199986	242.45374050003	0.0999783000443131
209912	100	346	stimuli/nonmovNat/rock/nmn_rock08.jpg            	1	5	1	nmn_rock08.jpg       	nonmovNat	5	rock      	30	rock08      	307	not_alive	0	still	0	natural 	1	n	0	0        	 	0.0	0	242.503766000038	242.603758900077	0.0999929000390694
210062	100	347	stimuli/animals2/pigeon/animal_pigeon02.jpg      	1	5	1	animal_pigeon02.jpg  	animals2 	1	pigeon    	28	pigeon02    	281	alive    	1	moves	1	natural 	1	n	0	1        	f	0.308255600044504	1	242.653767900076	242.75376370002	0.0999957999447361
210212	100	348	stimuli/animals2/lemur/animal_lemur03.jpg        	1	5	1	animal_lemur03.jpg   	animals2 	1	lemur     	23	lemur03     	232	alive    	1	moves	1	natural 	1	n	0	0        	 	0.0	0	242.803759300034	242.903763900045	0.100004600011744
210362	100	349	stimuli/nonmovArt/headphones/nma_headphones06.jpg	1	5	1	nma_headphones06.jpg 	nonmovArt	4	headphones	18	headphones06	185	not_alive	0	still	0	artefact	0	n	0	0        	 	0.0	0	242.953767900006	243.053768399986	0.100000499980524
210512	100	350	stimuli/movArt/bus/ma_bus02.jpg                  	1	5	1	ma_bus02.jpg         	movArt   	2	bus       	3	bus02       	31	not_alive	0	moves	1	artefact	0	n	0	0        	 	0.0	0	243.103763899999	243.203772700042	0.100008800043724
210662	100	351	stimuli/movNat/waterfall/mn_waterfall10.jpg      	1	5	1	mn_waterfall10.jpg   	movNat   	3	waterfall 	37	waterfall10 	379	not_alive	0	moves	1	natural 	1	n	0	0        	 	0.0	0	243.253769900068	243.353760900092	0.0999910000246018
210812	100	352	stimuli/movArt/boat/ma_boat02.jpg                	1	5	1	ma_boat02.jpg        	movArt   	2	boat      	2	boat02      	21	not_alive	0	moves	1	artefact	0	n	0	0        	 	0.0	0	243.403773099999	243.503764100024	0.0999910000246018
210962	100	353	stimuli/nonmovArt/bench/nma_bench05.jpg          	1	5	1	nma_bench05.jpg      	nonmovArt	4	bench     	1	bench05     	14	not_alive	0	still	0	artefact	0	n	0	0        	 	0.0	0	243.553779500071	243.653774700011	0.0999951999401674
211112	100	354	stimuli/animals2/bee/animal_bee01.jpg            	1	5	1	animal_bee01.jpg     	animals2 	1	bee       	0	bee01       	0	alive    	1	moves	1	natural 	1	n	0	0        	 	0.0	0	243.70378109999	243.803789700032	0.100008600042202
211262	100	355	stimuli/movNat/river/mn_river05.jpg              	1	5	1	mn_river05.jpg       	movNat   	3	river     	29	river05     	294	not_alive	0	moves	1	natural 	1	n	0	0        	 	0.0	0	243.853787300061	243.953779300093	0.0999920000322163
211412	100	356	stimuli/plant/grass/plant_grass03.jpg            	1	5	1	plant_grass03.jpg    	plant    	6	grass     	17	grass03     	172	alive    	1	still	0	natural 	1	n	0	0        	 	0.0	0	244.003807600006	244.103778399993	0.0999707999872044
211562	100	357	stimuli/nonmovNat/rock/nmn_rock05.jpg            	1	5	1	nmn_rock05.jpg       	nonmovNat	5	rock      	30	rock05      	304	not_alive	0	still	0	natural 	1	n	0	0        	 	0.0	0	244.153789200005	244.253789500101	0.100000300095417
211712	100	358	stimuli/nonmovNat/shell/nmn_shell03.jpg          	1	5	1	nmn_shell03.jpg      	nonmovNat	5	shell     	32	shell03     	322	not_alive	0	still	0	natural 	1	n	0	0        	 	0.0	0	244.303809600067	244.403783300077	0.0999737000092864
211862	100	359	stimuli/plant/cactus/plant_cactus09.jpg          	1	5	1	plant_cactus09.jpg   	plant    	6	cactus    	4	cactus09    	48	alive    	1	still	0	natural 	1	n	0	0        	 	0.0	0	244.453798300005	244.553807000048	0.100008700042963
212012	100	360	stimuli/nonmovArt/mug/nma_mug01.jpg              	1	5	1	nma_mug01.jpg        	nonmovArt	4	mug       	26	mug01       	260	not_alive	0	still	0	artefact	0	n	0	0        	 	0.0	0	244.603818400064	244.70381560002	0.0999971999553964
212162	100	361	stimuli/plant/cactus/plant_cactus04.jpg          	1	5	1	plant_cactus04.jpg   	plant    	6	cactus    	4	cactus04    	43	alive    	1	still	0	natural 	1	n	0	0        	 	0.0	0	244.753819300095	244.85381250002	0.0999931999249384
212312	100	362	stimuli/nonmovArt/clothespeg/nma_clothespeg07.jpg	1	5	1	nma_clothespeg07.jpg 	nonmovArt	4	clothespeg	8	clothespeg07	86	not_alive	0	still	0	artefact	0	n	0	0        	 	0.0	0	244.903812200064	245.003818800091	0.100006600026973
212462	100	363	stimuli/nonmovNat/sand/nmn_sand10.jpg            	1	5	1	nmn_sand10.jpg       	nonmovNat	5	sand      	31	sand10      	319	not_alive	0	still	0	natural 	1	n	0	0        	 	0.0	0	245.053811800084	245.153803199995	0.0999913999112323
212612	100	364	stimuli/plant2/fern/plant_fern10.jpg             	1	5	1	plant_fern10.jpg     	plant2   	7	fern      	14	fern10      	149	alive    	1	still	0	natural 	1	n	0	0        	 	0.0	0	245.203816300025	245.30382650008	0.100010200054385
212762	100	365	stimuli/nonmovArt/lock/nma_lock01.jpg            	1	5	1	nma_lock01.jpg       	nonmovArt	4	lock      	24	lock01      	240	not_alive	0	still	0	artefact	0	n	0	0        	 	0.0	0	245.353838200099	245.453814800014	0.0999765999149531
212912	100	366	stimuli/nonmovArt/clothespeg/nma_clothespeg02.jpg	1	5	1	nma_clothespeg02.jpg 	nonmovArt	4	clothespeg	8	clothespeg02	81	not_alive	0	still	0	artefact	0	n	0	0        	 	0.0	0	245.503833600087	245.603833500063	0.0999998999759555
213062	100	367	stimuli/movArt/train/ma_train08.jpg              	1	5	1	ma_train08.jpg       	movArt   	2	train     	34	train08     	347	not_alive	0	moves	1	artefact	0	n	0	0        	 	0.0	0	245.65382700006	245.753828000044	0.100000999984331
213212	100	368	stimuli/nonmovNat/sand/nmn_sand08.jpg            	1	5	1	nmn_sand08.jpg       	nonmovNat	5	sand      	31	sand08      	317	not_alive	0	still	0	natural 	1	n	0	0        	 	0.0	0	245.803832500009	245.903830800089	0.0999983000801876
213362	100	369	stimuli/movArt/bus/ma_bus07.jpg                  	1	5	1	ma_bus07.jpg         	movArt   	2	bus       	3	bus07       	36	not_alive	0	moves	1	artefact	0	n	1	0        	 	0.0	0	245.953853000072	246.053844400099	0.0999914000276476
213512	100	370	stimuli/animals2/tiger/animal_tiger02.jpg        	1	5	1	animal_tiger02.jpg   	animals2 	1	tiger     	33	tiger02     	331	alive    	1	moves	1	natural 	1	n	0	0        	 	0.0	0	246.103838899988	246.203831900028	0.0999930000398308
213662	100	371	stimuli/nonmovNat/shell/nmn_shell10.jpg          	1	5	1	nmn_shell10.jpg      	nonmovNat	5	shell     	32	shell10     	329	not_alive	0	still	0	natural 	1	n	0	1        	f	0.391947699943557	1	246.253841700032	246.353837500094	0.0999958000611514
213812	100	372	stimuli/animals/cat/animal_cat02.jpg             	1	5	1	animal_cat02.jpg     	animals  	0	cat       	6	cat02       	61	alive    	1	moves	1	natural 	1	n	0	0        	 	0.0	0	246.403863399988	246.50383880001	0.099975400022231
213962	100	373	stimuli/movNat/waterfall/mn_waterfall06.jpg      	1	5	1	mn_waterfall06.jpg   	movNat   	3	waterfall 	37	waterfall06 	375	not_alive	0	moves	1	natural 	1	n	0	0        	 	0.0	0	246.553865700029	246.653858600068	0.0999929000390694
214112	100	374	stimuli/animals/dog/animal_dog05.jpg             	1	5	1	animal_dog05.jpg     	animals  	0	dog       	11	dog05       	114	alive    	1	moves	1	natural 	1	n	0	0        	 	0.0	0	246.703851900063	246.803864700021	0.100012799957767
214262	100	375	stimuli/nonmovArt/bench/nma_bench09.jpg          	1	5	1	nma_bench09.jpg      	nonmovArt	4	bench     	1	bench09     	18	not_alive	0	still	0	artefact	0	n	0	0        	 	0.0	0	246.853875500034	246.953851100057	0.0999756000237539
214412	100	376	stimuli/nonmovNat/cliff/nmn_cliff07.jpg          	1	5	1	nmn_cliff07.jpg      	nonmovNat	5	cliff     	7	cliff07     	76	not_alive	0	still	0	natural 	1	n	0	0        	 	0.0	0	247.003861100064	247.103858900024	0.099997799959965
214562	100	377	stimuli/movArt/boat/ma_boat08.jpg                	1	5	1	ma_boat08.jpg        	movArt   	2	boat      	2	boat08      	27	not_alive	0	moves	1	artefact	0	n	0	0        	 	0.0	0	247.153880500002	247.253862700076	0.0999822000740096
214712	100	378	stimuli/movArt/bus/ma_bus02.jpg                  	1	5	1	ma_bus02.jpg         	movArt   	2	bus       	3	bus02       	31	not_alive	0	moves	1	artefact	0	n	0	0        	 	0.0	0	247.303884100053	247.403864199994	0.0999800999416038
214862	100	379	stimuli/movArt/car/ma_car07.jpg                  	1	5	1	ma_car07.jpg         	movArt   	2	car       	5	car07       	56	not_alive	0	moves	1	artefact	0	n	0	0        	 	0.0	0	247.4538895	247.553866000031	0.099976500030607
215012	100	380	stimuli/nonmovArt/mug/nma_mug08.jpg              	1	5	1	nma_mug08.jpg        	nonmovArt	4	mug       	26	mug08       	267	not_alive	0	still	0	artefact	0	n	0	0        	 	0.0	0	247.603879100061	247.703883800074	0.100004700012505
215162	100	381	stimuli/nonmovNat/shell/nmn_shell07.jpg          	1	5	1	nmn_shell07.jpg      	nonmovNat	5	shell     	32	shell07     	326	not_alive	0	still	0	natural 	1	n	0	0        	 	0.0	0	247.753889700049	247.853878900059	0.0999892000108957
215312	100	382	stimuli/animals/eagle/animal_eagle10.jpg         	1	5	1	animal_eagle10.jpg   	animals  	0	eagle     	13	eagle10     	139	alive    	1	moves	1	natural 	1	n	0	0        	 	0.0	0	247.903900200035	248.003896600101	0.0999964000657201
215462	100	383	stimuli/plant/vine/plant_vine07.jpg              	1	5	1	plant_vine07.jpg     	plant    	6	vine      	36	vine07      	366	alive    	1	still	0	natural 	1	n	0	0        	 	0.0	0	248.053906199988	248.153879199992	0.0999730000039563
215612	100	384	stimuli/animals/horse/animal_horse04.jpg         	1	5	1	animal_horse04.jpg   	animals  	0	horse     	20	horse04     	203	alive    	1	moves	1	natural 	1	n	0	0        	 	0.0	0	248.203906900017	248.303900200059	0.0999933000421152
215762	100	385	stimuli/animals2/pigeon/animal_pigeon07.jpg      	1	5	1	animal_pigeon07.jpg  	animals2 	1	pigeon    	28	pigeon07    	286	alive    	1	moves	1	natural 	1	n	0	0        	 	0.0	0	248.35389560007	248.453902400099	0.100006800028495
215912	100	386	stimuli/animals2/whale/animal_whale02.jpg        	1	5	1	animal_whale02.jpg   	animals2 	1	whale     	39	whale02     	391	alive    	1	moves	1	natural 	1	n	0	0        	 	0.0	0	248.503931000014	248.60389160004	0.0999606000259519
216062	100	387	stimuli/animals/eagle/animal_eagle07.jpg         	1	5	1	animal_eagle07.jpg   	animals  	0	eagle     	13	eagle07     	136	alive    	1	moves	1	natural 	1	n	0	0        	 	0.0	0	248.653918000055	248.753894500085	0.099976500030607
216212	100	388	stimuli/nonmovNat/crystal/nmn_crystal04.jpg      	1	5	1	nmn_crystal04.jpg    	nonmovNat	5	crystal   	10	crystal04   	103	not_alive	0	still	0	natural 	1	n	0	0        	 	0.0	0	248.803921299987	248.903915600036	0.0999943000497296
216362	100	389	stimuli/plant2/fern/plant_fern03.jpg             	1	5	1	plant_fern03.jpg     	plant2   	7	fern      	14	fern03      	142	alive    	1	still	0	natural 	1	n	0	0        	 	0.0	0	248.953911100049	249.053920200095	0.100009100046009
216512	100	390	stimuli/animals2/pigeon/animal_pigeon04.jpg      	1	5	1	animal_pigeon04.jpg  	animals2 	1	pigeon    	28	pigeon04    	283	alive    	1	moves	1	natural 	1	n	0	0        	 	0.0	0	249.103913400089	249.203904599999	0.0999911999097094
216662	100	391	stimuli/movArt/helicopter/ma_helicopter03.jpg    	1	5	1	ma_helicopter03.jpg  	movArt   	2	helicopter	19	helicopter03	192	not_alive	0	moves	1	artefact	0	n	0	0        	 	0.0	0	249.253936700057	249.353918800014	0.0999820999568328
216812	100	392	stimuli/movNat/hotspring/mn_hotspring04.jpg      	1	5	1	mn_hotspring04.jpg   	movNat   	3	hotspring 	21	hotspring04 	213	not_alive	0	moves	1	natural 	1	n	0	0        	 	0.0	0	249.403931000037	249.503918700037	0.099987699999474
216962	100	393	stimuli/movArt/helicopter/ma_helicopter03.jpg    	1	5	1	ma_helicopter03.jpg  	movArt   	2	helicopter	19	helicopter03	192	not_alive	0	moves	1	artefact	0	n	0	0        	 	0.0	0	249.553931200062	249.653925899998	0.0999946999363601
217112	100	394	stimuli/movNat/fire/mn_fire10.jpg                	1	5	1	mn_fire10.jpg        	movNat   	3	fire      	15	fire10      	159	not_alive	0	moves	1	natural 	1	n	0	0        	 	0.0	0	249.703934799996	249.80392960005	0.0999948000535369
217262	100	395	stimuli/animals2/bee/animal_bee05.jpg            	1	5	1	animal_bee05.jpg     	animals2 	1	bee       	0	bee05       	4	alive    	1	moves	1	natural 	1	n	0	0        	 	0.0	0	249.853937600041	249.953915900085	0.0999783000443131
217412	100	396	stimuli/plant2/clover/plant_clover06.jpg         	1	5	1	plant_clover06.jpg   	plant2   	7	clover    	9	clover06    	95	alive    	1	still	0	natural 	1	n	0	0        	 	0.0	0	250.003941700095	250.103937000036	0.0999952999409288
217562	100	397	stimuli/animals/dog/animal_dog03.jpg             	1	5	1	animal_dog03.jpg     	animals  	0	dog       	11	dog03       	112	alive    	1	moves	1	natural 	1	n	0	0        	 	0.0	0	250.153945600032	250.253942999989	0.0999973999569192
217712	100	398	stimuli/plant2/clover/plant_clover03.jpg         	1	5	1	plant_clover03.jpg   	plant2   	7	clover    	9	clover03    	92	alive    	1	still	0	natural 	1	n	0	0        	 	0.0	0	250.303952599992	250.403944800026	0.0999922000337392
217862	100	399	stimuli/plant2/moss/plant_moss10.jpg             	1	5	1	plant_moss10.jpg     	plant2   	7	moss      	25	moss10      	259	alive    	1	still	0	natural 	1	n	0	0        	 	0.0	0	250.453952600015	250.553946800064	0.0999942000489682
223462	100	400	stimuli/movArt/helicopter/ma_helicopter05.jpg    	1	6	1	ma_helicopter05.jpg  	movArt   	2	helicopter	19	helicopter05	194	not_alive	0	moves	1	artefact	0	n	0	0        	 	0.0	0	256.054081400041	256.154076400097	0.0999950000550598
223612	100	401	stimuli/animals/eagle/animal_eagle06.jpg         	1	6	1	animal_eagle06.jpg   	animals  	0	eagle     	13	eagle06     	135	alive    	1	moves	1	natural 	1	n	0	0        	 	0.0	0	256.204081900069	256.304082300048	0.100000399979763
223762	100	402	stimuli/movNat/river/mn_river07.jpg              	1	6	1	mn_river07.jpg       	movNat   	3	river     	29	river07     	296	not_alive	0	moves	1	natural 	1	n	0	0        	 	0.0	0	256.354089900036	256.454083200078	0.0999933000421152
223912	100	403	stimuli/animals2/lemur/animal_lemur03.jpg        	1	6	1	animal_lemur03.jpg   	animals2 	1	lemur     	23	lemur03     	232	alive    	1	moves	1	natural 	1	n	0	0        	 	0.0	0	256.504091400071	256.604082900099	0.0999915000284091
224062	100	404	stimuli/animals/dolphin/animal_dolphin04.jpg     	1	6	1	animal_dolphin04.jpg 	animals  	0	dolphin   	12	dolphin04   	123	alive    	1	moves	1	natural 	1	n	0	0        	 	0.0	0	256.654102500062	256.754086900037	0.0999843999743462
224212	100	405	stimuli/animals2/whale/animal_whale10.jpg        	1	6	1	animal_whale10.jpg   	animals2 	1	whale     	39	whale10     	399	alive    	1	moves	1	natural 	1	n	0	0        	 	0.0	0	256.804098200053	256.904091300094	0.0999931000405922
224362	100	406	stimuli/animals2/lemur/animal_lemur10.jpg        	1	6	1	animal_lemur10.jpg   	animals2 	1	lemur     	23	lemur10     	239	alive    	1	moves	1	natural 	1	n	0	0        	 	0.0	0	256.95410000009	257.054093800019	0.0999937999295071
224512	100	407	stimuli/plant2/palmtree/plant_palmtree05.jpg     	1	6	1	plant_palmtree05.jpg 	plant2   	7	palmtree  	27	palmtree05  	274	alive    	1	still	0	natural 	1	n	0	0        	 	0.0	0	257.104107800056	257.204097500071	0.099989700014703
224662	100	408	stimuli/movNat/waterfall/mn_waterfall05.jpg      	1	6	1	mn_waterfall05.jpg   	movNat   	3	waterfall 	37	waterfall05 	374	not_alive	0	moves	1	natural 	1	n	0	0        	 	0.0	0	257.254107700079	257.354102100013	0.0999943999340758
224812	100	409	stimuli/movArt/boat/ma_boat04.jpg                	1	6	1	ma_boat04.jpg        	movArt   	2	boat      	2	boat04      	23	not_alive	0	moves	1	artefact	0	n	0	0        	 	0.0	0	257.404113000026	257.504104300053	0.0999913000268862
224962	100	410	stimuli/movNat/hotspring/mn_hotspring06.jpg      	1	6	1	mn_hotspring06.jpg   	movNat   	3	hotspring 	21	hotspring06 	215	not_alive	0	moves	1	natural 	1	n	0	0        	 	0.0	0	257.554116700077	257.6541074001	0.0999907000223175
225112	100	411	stimuli/plant2/palmtree/plant_palmtree07.jpg     	1	6	1	plant_palmtree07.jpg 	plant2   	7	palmtree  	27	palmtree07  	276	alive    	1	still	0	natural 	1	n	0	0        	 	0.0	0	257.704120800015	257.804111200036	0.0999904000200331
225262	100	412	stimuli/nonmovArt/mug/nma_mug03.jpg              	1	6	1	nma_mug03.jpg        	nonmovArt	4	mug       	26	mug03       	262	not_alive	0	still	0	artefact	0	n	0	0        	 	0.0	0	257.854124000063	257.954119300004	0.0999952999409288
