onset	duration	eventnumber	stimulus_file	blockno	trialno	is_faststream	stim	stim_category	category_number	exemplar	exemplar_number	image_name	image_number	aliveness	aliveness_bin	movement	movement_bin	naturalness	naturalness_bin	response_hand_alive	istarget	response	keypressed	rt	correct	time_stimon	time_stimoff	stimdur
94490	100	0	stimuli/plant2/moss/plant_moss05.jpg             	1	1	1	plant_moss05.jpg     	plant2   	7	moss      	25	moss05      	254	alive    	1	still	0	natural 	1	n	0	0        	 	0.0	0	120.76366990013	120.863641200121	0.0999712999910116
94640	100	1	stimuli/plant2/fern/plant_fern02.jpg             	1	1	1	plant_fern02.jpg     	plant2   	7	fern      	14	fern02      	141	alive    	1	still	0	natural 	1	n	0	0        	 	0.0	0	120.91366109997	121.013654800132	0.0999937001615763
94790	100	2	stimuli/animals2/bee/animal_bee07.jpg            	1	1	1	animal_bee07.jpg     	animals2 	1	bee       	0	bee07       	6	alive    	1	moves	1	natural 	1	n	0	0        	 	0.0	0	121.063653200166	121.163644799963	0.0999915997963399
94940	100	3	stimuli/animals/dog/animal_dog10.jpg             	1	1	1	animal_dog10.jpg     	animals  	0	dog       	11	dog10       	119	alive    	1	moves	1	natural 	1	n	0	0        	 	0.0	0	121.213657600107	121.313649600139	0.0999920000322163
95090	100	4	stimuli/nonmovNat/cliff/nmn_cliff08.jpg          	1	1	1	nmn_cliff08.jpg      	nonmovNat	5	cliff     	7	cliff08     	77	not_alive	0	still	0	natural 	1	n	0	0        	 	0.0	0	121.363661100157	121.463651499944	0.0999903997872025
95240	100	5	stimuli/nonmovArt/bench/nma_bench03.jpg          	1	1	1	nma_bench03.jpg      	nonmovArt	4	bench     	1	bench03     	12	not_alive	0	still	0	artefact	0	n	0	0        	 	0.0	0	121.51369339996	121.613656700123	0.0999633001629263
95390	100	6	stimuli/nonmovArt/bench/nma_bench05.jpg          	1	1	1	nma_bench05.jpg      	nonmovArt	4	bench     	1	bench05     	14	not_alive	0	still	0	artefact	0	n	0	0        	 	0.0	0	121.663668800145	121.763659600168	0.0999908000230789
95540	100	7	stimuli/movNat/hotspring/mn_hotspring06.jpg      	1	1	1	mn_hotspring06.jpg   	movNat   	3	hotspring 	21	hotspring06 	215	not_alive	0	moves	1	natural 	1	n	0	0        	 	0.0	0	121.813929900061	121.913667500019	0.0997375999577344
95690	100	8	stimuli/plant2/lemontree/plant_lemontree02.jpg   	1	1	1	plant_lemontree02.jpg	plant2   	7	lemontree 	22	lemontree02 	221	alive    	1	still	0	natural 	1	n	0	0        	 	0.0	0	121.963693400146	122.063666900154	0.0999735000077635
95840	100	9	stimuli/nonmovNat/rock/nmn_rock04.jpg            	1	1	1	nmn_rock04.jpg       	nonmovNat	5	rock      	30	rock04      	303	not_alive	0	still	0	natural 	1	n	0	0        	 	0.0	0	122.113692400046	122.213669300079	0.0999769000336528
95990	100	10	stimuli/movNat/waves/mn_waves01.jpg              	1	1	1	mn_waves01.jpg       	movNat   	3	waves     	38	waves01     	380	not_alive	0	moves	1	natural 	1	n	1	0        	 	0.0	0	122.263680800097	122.363674800145	0.0999940000474453
96140	100	11	stimuli/animals/cat/animal_cat01.jpg             	1	1	1	animal_cat01.jpg     	animals  	0	cat       	6	cat01       	60	alive    	1	moves	1	natural 	1	n	0	0        	 	0.0	0	122.413684900152	122.513677899959	0.0999929998070002
96290	100	12	stimuli/movArt/bus/ma_bus05.jpg                  	1	1	1	ma_bus05.jpg         	movArt   	2	bus       	3	bus05       	34	not_alive	0	moves	1	artefact	0	n	0	1        	f	0.391982299974188	1	122.563689300092	122.663684800034	0.0999954999424517
96440	100	13	stimuli/movArt/train/ma_train04.jpg              	1	1	1	ma_train04.jpg       	movArt   	2	train     	34	train04     	343	not_alive	0	moves	1	artefact	0	n	0	0        	 	0.0	0	122.713742700173	122.81370300008	0.0999602999072522
96590	100	14	stimuli/movArt/car/ma_car04.jpg                  	1	1	1	ma_car04.jpg         	movArt   	2	car       	5	car04       	53	not_alive	0	moves	1	artefact	0	n	0	0        	 	0.0	0	122.863707300043	122.963712000055	0.100004700012505
96740	100	15	stimuli/movNat/waterfall/mn_waterfall10.jpg      	1	1	1	mn_waterfall10.jpg   	movNat   	3	waterfall 	37	waterfall10 	379	not_alive	0	moves	1	natural 	1	n	0	0        	 	0.0	0	123.013704800047	123.113705500029	0.100000699982047
96890	100	16	stimuli/animals/horse/animal_horse07.jpg         	1	1	1	animal_horse07.jpg   	animals  	0	horse     	20	horse07     	206	alive    	1	moves	1	natural 	1	n	0	0        	 	0.0	0	123.163709300105	123.263704500161	0.0999952000565827
97040	100	17	stimuli/animals2/lemur/animal_lemur10.jpg        	1	1	1	animal_lemur10.jpg   	animals2 	1	lemur     	23	lemur10     	239	alive    	1	moves	1	natural 	1	n	0	0        	 	0.0	0	123.313712300034	123.413708900101	0.099996600067243
97190	100	18	stimuli/plant2/clover/plant_clover10.jpg         	1	1	1	plant_clover10.jpg   	plant2   	7	clover    	9	clover10    	99	alive    	1	still	0	natural 	1	n	0	0        	 	0.0	0	123.463717299979	123.563710400136	0.0999931001570076
97340	100	19	stimuli/plant2/lemontree/plant_lemontree08.jpg   	1	1	1	plant_lemontree08.jpg	plant2   	7	lemontree 	22	lemontree08 	227	alive    	1	still	0	natural 	1	n	0	0        	 	0.0	0	123.613720600028	123.713744499953	0.100023899925873
97490	100	20	stimuli/plant2/palmtree/plant_palmtree06.jpg     	1	1	1	plant_palmtree06.jpg 	plant2   	7	palmtree  	27	palmtree06  	275	alive    	1	still	0	natural 	1	n	0	0        	 	0.0	0	123.763726100093	123.863720600028	0.0999944999348372
97640	100	21	stimuli/nonmovNat/shell/nmn_shell03.jpg          	1	1	1	nmn_shell03.jpg      	nonmovNat	5	shell     	32	shell03     	322	not_alive	0	still	0	natural 	1	n	0	0        	 	0.0	0	123.913729700027	124.013722399948	0.0999926999211311
97790	100	22	stimuli/movNat/waves/mn_waves06.jpg              	1	1	1	mn_waves06.jpg       	movNat   	3	waves     	38	waves06     	385	not_alive	0	moves	1	natural 	1	n	0	0        	 	0.0	0	124.063731800066	124.16372349998	0.0999916999135166
97940	100	23	stimuli/movArt/helicopter/ma_helicopter04.jpg    	1	1	1	ma_helicopter04.jpg  	movArt   	2	helicopter	19	helicopter04	193	not_alive	0	moves	1	artefact	0	n	0	0        	 	0.0	0	124.21373660001	124.313744700048	0.100008100038394
98090	100	24	stimuli/plant/cactus/plant_cactus08.jpg          	1	1	1	plant_cactus08.jpg   	plant    	6	cactus    	4	cactus08    	47	alive    	1	still	0	natural 	1	n	0	0        	 	0.0	0	124.363739400171	124.463760399958	0.100020999787375
98240	100	25	stimuli/movArt/helicopter/ma_helicopter08.jpg    	1	1	1	ma_helicopter08.jpg  	movArt   	2	helicopter	19	helicopter08	197	not_alive	0	moves	1	artefact	0	n	0	0        	 	0.0	0	124.51375110005	124.61375330016	0.100002200109884
98390	100	26	stimuli/nonmovArt/headphones/nma_headphones03.jpg	1	1	1	nma_headphones03.jpg 	nonmovArt	4	headphones	18	headphones03	182	not_alive	0	still	0	artefact	0	n	0	0        	 	0.0	0	124.663750699954	124.763741299976	0.099990600021556
98540	100	27	stimuli/nonmovNat/shell/nmn_shell03.jpg          	1	1	1	nmn_shell03.jpg      	nonmovNat	5	shell     	32	shell03     	322	not_alive	0	still	0	natural 	1	n	0	0        	 	0.0	0	124.813770200126	124.913745300146	0.0999751000199467
98690	100	28	stimuli/plant2/fern/plant_fern07.jpg             	1	1	1	plant_fern07.jpg     	plant2   	7	fern      	14	fern07      	146	alive    	1	still	0	natural 	1	n	0	0        	 	0.0	0	124.963756900048	125.063749100082	0.0999922000337392
98840	100	29	stimuli/movNat/waves/mn_waves02.jpg              	1	1	1	mn_waves02.jpg       	movNat   	3	waves     	38	waves02     	381	not_alive	0	moves	1	natural 	1	n	0	0        	 	0.0	0	125.113756400067	125.213763900101	0.100007500033826
98990	100	30	stimuli/movArt/boat/ma_boat03.jpg                	1	1	1	ma_boat03.jpg        	movArt   	2	boat      	2	boat03      	22	not_alive	0	moves	1	artefact	0	n	0	0        	 	0.0	0	125.263763800031	125.363755699946	0.0999918999150395
99140	100	31	stimuli/movArt/car/ma_car02.jpg                  	1	1	1	ma_car02.jpg         	movArt   	2	car       	5	car02       	51	not_alive	0	moves	1	artefact	0	n	0	0        	 	0.0	0	125.413766300073	125.51375890011	0.099992600036785
99290	100	32	stimuli/movNat/fire/mn_fire05.jpg                	1	1	1	mn_fire05.jpg        	movNat   	3	fire      	15	fire05      	154	not_alive	0	moves	1	natural 	1	n	0	0        	 	0.0	0	125.563799600117	125.663776500151	0.0999769000336528
99440	100	33	stimuli/nonmovArt/clothespeg/nma_clothespeg07.jpg	1	1	1	nma_clothespeg07.jpg 	nonmovArt	4	clothespeg	8	clothespeg07	86	not_alive	0	still	0	artefact	0	n	0	0        	 	0.0	0	125.71377640008	125.813771700021	0.0999952999409288
99590	100	34	stimuli/plant/grass/plant_grass09.jpg            	1	1	1	plant_grass09.jpg    	plant    	6	grass     	17	grass09     	178	alive    	1	still	0	natural 	1	n	0	0        	 	0.0	0	125.863777999999	125.963782600127	0.100004600128159
99740	100	35	stimuli/movNat/river/mn_river05.jpg              	1	1	1	mn_river05.jpg       	movNat   	3	river     	29	river05     	294	not_alive	0	moves	1	natural 	1	n	0	0        	 	0.0	0	126.013778300025	126.113774399972	0.0999960999470204
99890	100	36	stimuli/plant/cactus/plant_cactus08.jpg          	1	1	1	plant_cactus08.jpg   	plant    	6	cactus    	4	cactus08    	47	alive    	1	still	0	natural 	1	n	0	0        	 	0.0	0	126.163798799971	126.263776200125	0.0999774001538754
100040	100	37	stimuli/animals2/pigeon/animal_pigeon09.jpg      	1	1	1	animal_pigeon09.jpg  	animals2 	1	pigeon    	28	pigeon09    	288	alive    	1	moves	1	natural 	1	n	0	0        	 	0.0	0	126.313811999978	126.41377910017	0.0999671001918614
100190	100	38	stimuli/movArt/car/ma_car07.jpg                  	1	1	1	ma_car07.jpg         	movArt   	2	car       	5	car07       	56	not_alive	0	moves	1	artefact	0	n	0	0        	 	0.0	0	126.463788800174	126.563796200091	0.100007399916649
100340	100	39	stimuli/plant2/clover/plant_clover05.jpg         	1	1	1	plant_clover05.jpg   	plant2   	7	clover    	9	clover05    	94	alive    	1	still	0	natural 	1	n	0	0        	 	0.0	0	126.613794900011	126.71378650004	0.0999916000291705
100490	100	40	stimuli/animals/dolphin/animal_dolphin08.jpg     	1	1	1	animal_dolphin08.jpg 	animals  	0	dolphin   	12	dolphin08   	127	alive    	1	moves	1	natural 	1	n	0	0        	 	0.0	0	126.763796400046	126.863795000128	0.099998600082472
100640	100	41	stimuli/plant2/fern/plant_fern10.jpg             	1	1	1	plant_fern10.jpg     	plant2   	7	fern      	14	fern10      	149	alive    	1	still	0	natural 	1	n	0	0        	 	0.0	0	126.913806300145	127.01379300002	0.0999866998754442
100790	100	42	stimuli/animals/horse/animal_horse07.jpg         	1	1	1	animal_horse07.jpg   	animals  	0	horse     	20	horse07     	206	alive    	1	moves	1	natural 	1	n	0	0        	 	0.0	0	127.063818000024	127.163796399953	0.0999783999286592
100940	100	43	stimuli/nonmovArt/mug/nma_mug08.jpg              	1	1	1	nma_mug08.jpg        	nonmovArt	4	mug       	26	mug08       	267	not_alive	0	still	0	artefact	0	n	0	0        	 	0.0	0	127.213807800086	127.313805700047	0.0999978999607265
101090	100	44	stimuli/nonmovArt/mug/nma_mug02.jpg              	1	1	1	nma_mug02.jpg        	nonmovArt	4	mug       	26	mug02       	261	not_alive	0	still	0	artefact	0	n	0	0        	 	0.0	0	127.363814900164	127.463802700164	0.0999878000002354
101240	100	45	stimuli/plant/vine/plant_vine07.jpg              	1	1	1	plant_vine07.jpg     	plant    	6	vine      	36	vine07      	366	alive    	1	still	0	natural 	1	n	0	0        	 	0.0	0	127.513815599959	127.61380739999	0.0999918000306934
101390	100	46	stimuli/animals2/whale/animal_whale02.jpg        	1	1	1	animal_whale02.jpg   	animals2 	1	whale     	39	whale02     	391	alive    	1	moves	1	natural 	1	n	0	0        	 	0.0	0	127.663820700021	127.763812800171	0.0999921001493931
101540	100	47	stimuli/animals2/bee/animal_bee02.jpg            	1	1	1	animal_bee02.jpg     	animals2 	1	bee       	0	bee02       	1	alive    	1	moves	1	natural 	1	n	0	0        	 	0.0	0	127.813825800084	127.913819400128	0.0999936000443995
101690	100	48	stimuli/animals/horse/animal_horse01.jpg         	1	1	1	animal_horse01.jpg   	animals  	0	horse     	20	horse01     	200	alive    	1	moves	1	natural 	1	n	0	0        	 	0.0	0	127.963838299969	128.063820300158	0.099982000188902
101840	100	49	stimuli/animals/dolphin/animal_dolphin08.jpg     	1	1	1	animal_dolphin08.jpg 	animals  	0	dolphin   	12	dolphin08   	127	alive    	1	moves	1	natural 	1	n	0	0        	 	0.0	0	128.113831100054	128.213825700106	0.099994600052014
101990	100	50	stimuli/nonmovArt/mug/nma_mug08.jpg              	1	1	1	nma_mug08.jpg        	nonmovArt	4	mug       	26	mug08       	267	not_alive	0	still	0	artefact	0	n	0	0        	 	0.0	0	128.26383540011	128.363829900045	0.0999944999348372
102140	100	51	stimuli/animals/eagle/animal_eagle09.jpg         	1	1	1	animal_eagle09.jpg   	animals  	0	eagle     	13	eagle09     	138	alive    	1	moves	1	natural 	1	n	0	0        	 	0.0	0	128.413845400093	128.513837600127	0.0999922000337392
102290	100	52	stimuli/animals2/tiger/animal_tiger01.jpg        	1	1	1	animal_tiger01.jpg   	animals2 	1	tiger     	33	tiger01     	330	alive    	1	moves	1	natural 	1	n	0	0        	 	0.0	0	128.563844599994	128.663835300133	0.0999907001387328
102440	100	53	stimuli/plant2/lemontree/plant_lemontree06.jpg   	1	1	1	plant_lemontree06.jpg	plant2   	7	lemontree 	22	lemontree06 	225	alive    	1	still	0	natural 	1	n	0	0        	 	0.0	0	128.713845100021	128.813838500064	0.0999934000428766
102590	100	54	stimuli/plant/vine/plant_vine06.jpg              	1	1	1	plant_vine06.jpg     	plant    	6	vine      	36	vine06      	365	alive    	1	still	0	natural 	1	n	0	0        	 	0.0	0	128.863851699978	128.963843800128	0.0999921001493931
102740	100	55	stimuli/animals2/pigeon/animal_pigeon01.jpg      	1	1	1	animal_pigeon01.jpg  	animals2 	1	pigeon    	28	pigeon01    	280	alive    	1	moves	1	natural 	1	n	0	0        	 	0.0	0	129.01385330013	129.113846400054	0.0999930999241769
102890	100	56	stimuli/plant/grass/plant_grass08.jpg            	1	1	1	plant_grass08.jpg    	plant    	6	grass     	17	grass08     	177	alive    	1	still	0	natural 	1	n	0	0        	 	0.0	0	129.163855000166	129.263879399979	0.100024399813265
103040	100	57	stimuli/nonmovNat/sand/nmn_sand07.jpg            	1	1	1	nmn_sand07.jpg       	nonmovNat	5	sand      	31	sand07      	316	not_alive	0	still	0	natural 	1	n	0	0        	 	0.0	0	129.313861400122	129.413852700032	0.0999912999104708
103190	100	58	stimuli/animals2/lemur/animal_lemur09.jpg        	1	1	1	animal_lemur09.jpg   	animals2 	1	lemur     	23	lemur09     	238	alive    	1	moves	1	natural 	1	n	1	0        	 	0.0	0	129.463869200088	129.563856299967	0.09998709987849
103340	100	59	stimuli/nonmovArt/headphones/nma_headphones02.jpg	1	1	1	nma_headphones02.jpg 	nonmovArt	4	headphones	18	headphones02	181	not_alive	0	still	0	artefact	0	n	0	0        	 	0.0	0	129.613883499987	129.71386070014	0.0999772001523524
103490	100	60	stimuli/animals2/tiger/animal_tiger01.jpg        	1	1	1	animal_tiger01.jpg   	animals2 	1	tiger     	33	tiger01     	330	alive    	1	moves	1	natural 	1	n	0	1        	f	0.300190299982205	1	129.763873100048	129.863867999986	0.099994899937883
103640	100	61	stimuli/animals/cat/animal_cat10.jpg             	1	1	1	animal_cat10.jpg     	animals  	0	cat       	6	cat10       	69	alive    	1	moves	1	natural 	1	n	0	0        	 	0.0	0	129.913876499981	130.013896299992	0.100019800011069
103790	100	62	stimuli/animals2/whale/animal_whale07.jpg        	1	1	1	animal_whale07.jpg   	animals2 	1	whale     	39	whale07     	396	alive    	1	moves	1	natural 	1	n	0	0        	 	0.0	0	130.063881800044	130.163870800054	0.0999890000093728
103940	100	63	stimuli/movNat/hotspring/mn_hotspring01.jpg      	1	1	1	mn_hotspring01.jpg   	movNat   	3	hotspring 	21	hotspring01 	210	not_alive	0	moves	1	natural 	1	n	0	0        	 	0.0	0	130.213882599957	130.31388469995	0.100002099992707
104090	100	64	stimuli/nonmovNat/sand/nmn_sand01.jpg            	1	1	1	nmn_sand01.jpg       	nonmovNat	5	sand      	31	sand01      	310	not_alive	0	still	0	natural 	1	n	0	0        	 	0.0	0	130.363889000146	130.463877000147	0.0999880000017583
104240	100	65	stimuli/movNat/hotspring/mn_hotspring01.jpg      	1	1	1	mn_hotspring01.jpg   	movNat   	3	hotspring 	21	hotspring01 	210	not_alive	0	moves	1	natural 	1	n	0	0        	 	0.0	0	130.513899500016	130.613889300032	0.0999898000154644
104390	100	66	stimuli/plant2/moss/plant_moss09.jpg             	1	1	1	plant_moss09.jpg     	plant2   	7	moss      	25	moss09      	258	alive    	1	still	0	natural 	1	n	0	0        	 	0.0	0	130.663918900071	130.763898000121	0.0999791000504047
104540	100	67	stimuli/nonmovArt/lock/nma_lock09.jpg            	1	1	1	nma_lock09.jpg       	nonmovArt	4	lock      	24	lock09      	248	not_alive	0	still	0	artefact	0	n	0	0        	 	0.0	0	130.813897300046	130.913891500095	0.0999942000489682
104690	100	68	stimuli/movNat/waterfall/mn_waterfall06.jpg      	1	1	1	mn_waterfall06.jpg   	movNat   	3	waterfall 	37	waterfall06 	375	not_alive	0	moves	1	natural 	1	n	0	0        	 	0.0	0	130.963898400078	131.063893700019	0.0999952999409288
104840	100	69	stimuli/animals/eagle/animal_eagle07.jpg         	1	1	1	animal_eagle07.jpg   	animals  	0	eagle     	13	eagle07     	136	alive    	1	moves	1	natural 	1	n	0	0        	 	0.0	0	131.113945099991	131.213895200053	0.099950100062415
104990	100	70	stimuli/nonmovArt/lock/nma_lock04.jpg            	1	1	1	nma_lock04.jpg       	nonmovArt	4	lock      	24	lock04      	243	not_alive	0	still	0	artefact	0	n	0	0        	 	0.0	0	131.263905999949	131.36390180001	0.0999958000611514
105140	100	71	stimuli/nonmovNat/rock/nmn_rock05.jpg            	1	1	1	nmn_rock05.jpg       	nonmovNat	5	rock      	30	rock05      	304	not_alive	0	still	0	natural 	1	n	0	0        	 	0.0	0	131.413911600132	131.513911300106	0.0999996999744326
105290	100	72	stimuli/plant/cactus/plant_cactus09.jpg          	1	1	1	plant_cactus09.jpg   	plant    	6	cactus    	4	cactus09    	48	alive    	1	still	0	natural 	1	n	0	0        	 	0.0	0	131.563917099964	131.663910500007	0.0999934000428766
105440	100	73	stimuli/nonmovNat/shell/nmn_shell07.jpg          	1	1	1	nmn_shell07.jpg      	nonmovNat	5	shell     	32	shell07     	326	not_alive	0	still	0	natural 	1	n	0	0        	 	0.0	0	131.713918700116	131.813911400037	0.0999926999211311
105590	100	74	stimuli/nonmovArt/bench/nma_bench07.jpg          	1	1	1	nma_bench07.jpg      	nonmovArt	4	bench     	1	bench07     	16	not_alive	0	still	0	artefact	0	n	0	0        	 	0.0	0	131.863953700056	131.963914199965	0.0999604999087751
105740	100	75	stimuli/animals2/bee/animal_bee08.jpg            	1	1	1	animal_bee08.jpg     	animals2 	1	bee       	0	bee08       	7	alive    	1	moves	1	natural 	1	n	0	0        	 	0.0	0	132.013925499981	132.113932600012	0.10000710003078
105890	100	76	stimuli/animals2/tiger/animal_tiger01.jpg        	1	1	1	animal_tiger01.jpg   	animals2 	1	tiger     	33	tiger01     	330	alive    	1	moves	1	natural 	1	n	0	0        	 	0.0	0	132.16393280006	132.26392180007	0.0999890000093728
106040	100	77	stimuli/movArt/train/ma_train02.jpg              	1	1	1	ma_train02.jpg       	movArt   	2	train     	34	train02     	341	not_alive	0	moves	1	artefact	0	n	0	0        	 	0.0	0	132.313933900092	132.41393940011	0.100005500018597
106190	100	78	stimuli/animals/dog/animal_dog01.jpg             	1	1	1	animal_dog01.jpg     	animals  	0	dog       	11	dog01       	110	alive    	1	moves	1	natural 	1	n	0	0        	 	0.0	0	132.46394190006	132.563930100063	0.0999882000032812
106340	100	79	stimuli/nonmovArt/headphones/nma_headphones03.jpg	1	1	1	nma_headphones03.jpg 	nonmovArt	4	headphones	18	headphones03	182	not_alive	0	still	0	artefact	0	n	0	0        	 	0.0	0	132.613957900088	132.713936900022	0.0999789999332279
110173	100	80	stimuli/animals/cat/animal_cat04.jpg             	1	2	1	animal_cat04.jpg     	animals  	0	cat       	6	cat04       	63	alive    	1	moves	1	natural 	1	n	0	0        	 	0.0	0	136.447386899963	136.547361999983	0.0999751000199467
110323	100	81	stimuli/plant/flower/plant_flower01.jpg          	1	2	1	plant_flower01.jpg   	plant    	6	flower    	16	flower01    	160	alive    	1	still	0	natural 	1	n	0	0        	 	0.0	0	136.597371899989	136.697365900036	0.0999940000474453
110473	100	82	stimuli/plant/tree/plant_tree07.jpg              	1	2	1	plant_tree07.jpg     	plant    	6	tree      	35	tree07      	356	alive    	1	still	0	natural 	1	n	0	0        	 	0.0	0	136.747375400038	136.84736949997	0.0999940999317914
110623	100	83	stimuli/plant2/palmtree/plant_palmtree04.jpg     	1	2	1	plant_palmtree04.jpg 	plant2   	7	palmtree  	27	palmtree04  	273	alive    	1	still	0	natural 	1	n	0	0        	 	0.0	0	136.897378900088	136.997375100153	0.0999962000641972
110773	100	84	stimuli/plant2/moss/plant_moss06.jpg             	1	2	1	plant_moss06.jpg     	plant2   	7	moss      	25	moss06      	255	alive    	1	still	0	natural 	1	n	0	0        	 	0.0	0	137.047379200114	137.147377500078	0.0999982999637723
110923	100	85	stimuli/movNat/fire/mn_fire03.jpg                	1	2	1	mn_fire03.jpg        	movNat   	3	fire      	15	fire03      	152	not_alive	0	moves	1	natural 	1	n	0	0        	 	0.0	0	137.197387699969	137.297377699986	0.0999900000169873
111073	100	86	stimuli/plant/vine/plant_vine10.jpg              	1	2	1	plant_vine10.jpg     	plant    	6	vine      	36	vine10      	369	alive    	1	still	0	natural 	1	n	0	0        	 	0.0	0	137.347389600007	137.447381500155	0.0999919001478702
111223	100	87	stimuli/movArt/boat/ma_boat10.jpg                	1	2	1	ma_boat10.jpg        	movArt   	2	boat      	2	boat10      	29	not_alive	0	moves	1	artefact	0	n	0	0        	 	0.0	0	137.497393599944	137.597387999995	0.0999944000504911
111373	100	88	stimuli/nonmovNat/crystal/nmn_crystal06.jpg      	1	2	1	nmn_crystal06.jpg    	nonmovNat	5	crystal   	10	crystal06   	105	not_alive	0	still	0	natural 	1	n	0	0        	 	0.0	0	137.647399100009	137.747408400057	0.100009300047532
111523	100	89	stimuli/plant/tree/plant_tree01.jpg              	1	2	1	plant_tree01.jpg     	plant    	6	tree      	35	tree01      	350	alive    	1	still	0	natural 	1	n	0	0        	 	0.0	0	137.797401200049	137.897393000079	0.0999918000306934
111674	100	90	stimuli/movNat/river/mn_river04.jpg              	1	2	1	mn_river04.jpg       	movNat   	3	river     	29	river04     	293	not_alive	0	moves	1	natural 	1	n	0	0        	 	0.0	0	137.9474049001	138.047400200041	0.0999952999409288
111824	100	91	stimuli/animals/dog/animal_dog06.jpg             	1	2	1	animal_dog06.jpg     	animals  	0	dog       	11	dog06       	115	alive    	1	moves	1	natural 	1	n	0	0        	 	0.0	0	138.097410900053	138.19740179996	0.099990899907425
111974	100	92	stimuli/movArt/boat/ma_boat01.jpg                	1	2	1	ma_boat01.jpg        	movArt   	2	boat      	2	boat01      	20	not_alive	0	moves	1	artefact	0	n	0	0        	 	0.0	0	138.24741140008	138.347415700089	0.100004300009459
112124	100	93	stimuli/animals2/whale/animal_whale03.jpg        	1	2	1	animal_whale03.jpg   	animals2 	1	whale     	39	whale03     	392	alive    	1	moves	1	natural 	1	n	0	0        	 	0.0	0	138.397417400032	138.497409000061	0.0999916000291705
112274	100	94	stimuli/movNat/waterfall/mn_waterfall10.jpg      	1	2	1	mn_waterfall10.jpg   	movNat   	3	waterfall 	37	waterfall10 	379	not_alive	0	moves	1	natural 	1	n	0	0        	 	0.0	0	138.547418999951	138.647411900107	0.0999929001554847
112424	100	95	stimuli/nonmovNat/sand/nmn_sand03.jpg            	1	2	1	nmn_sand03.jpg       	nonmovNat	5	sand      	31	sand03      	312	not_alive	0	still	0	natural 	1	n	1	0        	 	0.0	0	138.697421699995	138.797418199945	0.0999964999500662
112574	100	96	stimuli/plant2/palmtree/plant_palmtree05.jpg     	1	2	1	plant_palmtree05.jpg 	plant2   	7	palmtree  	27	palmtree05  	274	alive    	1	still	0	natural 	1	n	0	1        	f	0.250186000019312	1	138.847440000158	138.947422700003	0.0999826998449862
112724	100	97	stimuli/nonmovNat/cliff/nmn_cliff04.jpg          	1	2	1	nmn_cliff04.jpg      	nonmovNat	5	cliff     	7	cliff04     	73	not_alive	0	still	0	natural 	1	n	0	0        	 	0.0	0	138.997430799995	139.097424400039	0.0999936000443995
112874	100	98	stimuli/animals2/lemur/animal_lemur04.jpg        	1	2	1	animal_lemur04.jpg   	animals2 	1	lemur     	23	lemur04     	233	alive    	1	moves	1	natural 	1	n	0	0        	 	0.0	0	139.147435900057	139.247425399953	0.0999894998967648
113024	100	99	stimuli/nonmovNat/crystal/nmn_crystal06.jpg      	1	2	1	nmn_crystal06.jpg    	nonmovNat	5	crystal   	10	crystal06   	105	not_alive	0	still	0	natural 	1	n	0	0        	 	0.0	0	139.297435800079	139.397428600118	0.0999928000383079
113174	100	100	stimuli/movArt/bus/ma_bus05.jpg                  	1	2	1	ma_bus05.jpg         	movArt   	2	bus       	3	bus05       	34	not_alive	0	moves	1	artefact	0	n	0	0        	 	0.0	0	139.447439400014	139.547433099942	0.0999936999287456
113324	100	101	stimuli/plant/grass/plant_grass01.jpg            	1	2	1	plant_grass01.jpg    	plant    	6	grass     	17	grass01     	170	alive    	1	still	0	natural 	1	n	0	0        	 	0.0	0	139.597446700092	139.697439800017	0.0999930999241769
113474	100	102	stimuli/animals/dolphin/animal_dolphin01.jpg     	1	2	1	animal_dolphin01.jpg 	animals  	0	dolphin   	12	dolphin01   	120	alive    	1	moves	1	natural 	1	n	0	0        	 	0.0	0	139.747457999969	139.847443799954	0.0999857999850064
113624	100	103	stimuli/movArt/train/ma_train03.jpg              	1	2	1	ma_train03.jpg       	movArt   	2	train     	34	train03     	342	not_alive	0	moves	1	artefact	0	n	0	0        	 	0.0	0	139.897452600067	139.997445400106	0.0999928000383079
113774	100	104	stimuli/nonmovNat/cliff/nmn_cliff03.jpg          	1	2	1	nmn_cliff03.jpg      	nonmovNat	5	cliff     	7	cliff03     	72	not_alive	0	still	0	natural 	1	n	0	0        	 	0.0	0	140.047454900108	140.147448200034	0.0999932999256998
113924	100	105	stimuli/plant/flower/plant_flower10.jpg          	1	2	1	plant_flower10.jpg   	plant    	6	flower    	16	flower10    	169	alive    	1	still	0	natural 	1	n	0	0        	 	0.0	0	140.197460500058	140.297452399973	0.0999918999150395
114074	100	106	stimuli/plant/tree/plant_tree09.jpg              	1	2	1	plant_tree09.jpg     	plant    	6	tree      	35	tree09      	358	alive    	1	still	0	natural 	1	n	0	0        	 	0.0	0	140.347462000093	140.44745550002	0.0999934999272227
114224	100	107	stimuli/nonmovArt/clothespeg/nma_clothespeg10.jpg	1	2	1	nma_clothespeg10.jpg 	nonmovArt	4	clothespeg	8	clothespeg10	89	not_alive	0	still	0	artefact	0	n	0	0        	 	0.0	0	140.49746650015	140.597458800068	0.0999922999180853
114374	100	108	stimuli/nonmovArt/lock/nma_lock05.jpg            	1	2	1	nma_lock05.jpg       	nonmovArt	4	lock      	24	lock05      	244	not_alive	0	still	0	artefact	0	n	0	0        	 	0.0	0	140.647471500095	140.747470099945	0.0999985998496413
114524	100	109	stimuli/movNat/river/mn_river08.jpg              	1	2	1	mn_river08.jpg       	movNat   	3	river     	29	river08     	297	not_alive	0	moves	1	natural 	1	n	0	0        	 	0.0	0	140.797476900043	140.897467300063	0.0999904000200331
114674	100	110	stimuli/movArt/bus/ma_bus05.jpg                  	1	2	1	ma_bus05.jpg         	movArt   	2	bus       	3	bus05       	34	not_alive	0	moves	1	artefact	0	n	0	0        	 	0.0	0	140.947478099959	141.047468000092	0.0999899001326412
114824	100	111	stimuli/nonmovNat/rock/nmn_rock02.jpg            	1	2	1	nmn_rock02.jpg       	nonmovNat	5	rock      	30	rock02      	301	not_alive	0	still	0	natural 	1	n	0	0        	 	0.0	0	141.097481000004	141.197486700024	0.10000570002012
114974	100	112	stimuli/plant2/clover/plant_clover05.jpg         	1	2	1	plant_clover05.jpg   	plant2   	7	clover    	9	clover05    	94	alive    	1	still	0	natural 	1	n	0	0        	 	0.0	0	141.247486500069	141.347489699954	0.100003199884668
115124	100	113	stimuli/movNat/fire/mn_fire04.jpg                	1	2	1	mn_fire04.jpg        	movNat   	3	fire      	15	fire04      	153	not_alive	0	moves	1	natural 	1	n	0	0        	 	0.0	0	141.397488099989	141.497480900027	0.0999928000383079
115274	100	114	stimuli/plant/flower/plant_flower04.jpg          	1	2	1	plant_flower04.jpg   	plant    	6	flower    	16	flower04    	163	alive    	1	still	0	natural 	1	n	0	0        	 	0.0	0	141.547492600046	141.647485299967	0.0999926999211311
115424	100	115	stimuli/animals/eagle/animal_eagle02.jpg         	1	2	1	animal_eagle02.jpg   	animals  	0	eagle     	13	eagle02     	131	alive    	1	moves	1	natural 	1	n	0	0        	 	0.0	0	141.697497599991	141.797489100136	0.0999915001448244
115574	100	116	stimuli/nonmovNat/crystal/nmn_crystal01.jpg      	1	2	1	nmn_crystal01.jpg    	nonmovNat	5	crystal   	10	crystal01   	100	not_alive	0	still	0	natural 	1	n	0	0        	 	0.0	0	141.847498600138	141.947492599953	0.0999939998146146
115724	100	117	stimuli/nonmovArt/clothespeg/nma_clothespeg04.jpg	1	2	1	nma_clothespeg04.jpg 	nonmovArt	4	clothespeg	8	clothespeg04	83	not_alive	0	still	0	artefact	0	n	0	0        	 	0.0	0	141.997503800085	142.097492099972	0.0999882998876274
115874	100	118	stimuli/animals2/pigeon/animal_pigeon04.jpg      	1	2	1	animal_pigeon04.jpg  	animals2 	1	pigeon    	28	pigeon04    	283	alive    	1	moves	1	natural 	1	n	1	0        	 	0.0	0	142.147502500098	142.247494200012	0.0999916999135166
116024	100	119	stimuli/movArt/helicopter/ma_helicopter03.jpg    	1	2	1	ma_helicopter03.jpg  	movArt   	2	helicopter	19	helicopter03	192	not_alive	0	moves	1	artefact	0	n	0	1        	f	0.250182599993423	1	142.297503800131	142.397498399951	0.0999945998191834
116174	100	120	stimuli/movArt/boat/ma_boat04.jpg                	1	2	1	ma_boat04.jpg        	movArt   	2	boat      	2	boat04      	23	not_alive	0	moves	1	artefact	0	n	0	0        	 	0.0	0	142.447509400081	142.547505300026	0.0999958999454975
116324	100	121	stimuli/animals/eagle/animal_eagle07.jpg         	1	2	1	animal_eagle07.jpg   	animals  	0	eagle     	13	eagle07     	136	alive    	1	moves	1	natural 	1	n	0	1        	f	0.541984099894762	1	142.597513200017	142.697528999997	0.100015799980611
116474	100	122	stimuli/plant/grass/plant_grass03.jpg            	1	2	1	plant_grass03.jpg    	plant    	6	grass     	17	grass03     	172	alive    	1	still	0	natural 	1	n	0	0        	 	0.0	0	142.747516100062	142.847511200001	0.0999950999394059
116624	100	123	stimuli/plant2/moss/plant_moss01.jpg             	1	2	1	plant_moss01.jpg     	plant2   	7	moss      	25	moss01      	250	alive    	1	still	0	natural 	1	n	0	0        	 	0.0	0	142.897520400118	142.997513600159	0.0999932000413537
116774	100	124	stimuli/nonmovNat/rock/nmn_rock07.jpg            	1	2	1	nmn_rock07.jpg       	nonmovNat	5	rock      	30	rock07      	306	not_alive	0	still	0	natural 	1	n	0	0        	 	0.0	0	143.047520500142	143.147516699973	0.0999961998313665
116924	100	125	stimuli/movArt/bus/ma_bus07.jpg                  	1	2	1	ma_bus07.jpg         	movArt   	2	bus       	3	bus07       	36	not_alive	0	moves	1	artefact	0	n	0	0        	 	0.0	0	143.197527500102	143.297521600034	0.0999940999317914
117074	100	126	stimuli/plant/cactus/plant_cactus02.jpg          	1	2	1	plant_cactus02.jpg   	plant    	6	cactus    	4	cactus02    	41	alive    	1	still	0	natural 	1	n	0	0        	 	0.0	0	143.347530800151	143.447522700066	0.0999918999150395
117224	100	127	stimuli/nonmovArt/bench/nma_bench01.jpg          	1	2	1	nma_bench01.jpg      	nonmovArt	4	bench     	1	bench01     	10	not_alive	0	still	0	artefact	0	n	0	0        	 	0.0	0	143.497532899957	143.597529300023	0.0999964000657201
117374	100	128	stimuli/animals/dolphin/animal_dolphin09.jpg     	1	2	1	animal_dolphin09.jpg 	animals  	0	dolphin   	12	dolphin09   	128	alive    	1	moves	1	natural 	1	n	0	0        	 	0.0	0	143.647539600031	143.74753380008	0.0999942000489682
117524	100	129	stimuli/movNat/waves/mn_waves10.jpg              	1	2	1	mn_waves10.jpg       	movNat   	3	waves     	38	waves10     	389	not_alive	0	moves	1	natural 	1	n	0	0        	 	0.0	0	143.79754379997	143.897535600001	0.0999918000306934
117674	100	130	stimuli/plant/flower/plant_flower09.jpg          	1	2	1	plant_flower09.jpg   	plant    	6	flower    	16	flower09    	168	alive    	1	still	0	natural 	1	n	0	0        	 	0.0	0	143.947544200113	144.047554400051	0.100010199937969
117824	100	131	stimuli/plant2/clover/plant_clover04.jpg         	1	2	1	plant_clover04.jpg   	plant2   	7	clover    	9	clover04    	93	alive    	1	still	0	natural 	1	n	0	0        	 	0.0	0	144.097573500127	144.197560300119	0.0999867999926209
117974	100	132	stimuli/nonmovNat/shell/nmn_shell09.jpg          	1	2	1	nmn_shell09.jpg      	nonmovNat	5	shell     	32	shell09     	328	not_alive	0	still	0	natural 	1	n	0	0        	 	0.0	0	144.247551599983	144.347543600015	0.0999920000322163
118124	100	133	stimuli/nonmovArt/clothespeg/nma_clothespeg06.jpg	1	2	1	nma_clothespeg06.jpg 	nonmovArt	4	clothespeg	8	clothespeg06	85	not_alive	0	still	0	artefact	0	n	0	0        	 	0.0	0	144.397556700045	144.497552399989	0.0999956999439746
118274	100	134	stimuli/nonmovNat/sand/nmn_sand01.jpg            	1	2	1	nmn_sand01.jpg       	nonmovNat	5	sand      	31	sand01      	310	not_alive	0	still	0	natural 	1	n	0	0        	 	0.0	0	144.547559600091	144.647553300019	0.0999936999287456
118424	100	135	stimuli/nonmovArt/lock/nma_lock06.jpg            	1	2	1	nma_lock06.jpg       	nonmovArt	4	lock      	24	lock06      	245	not_alive	0	still	0	artefact	0	n	0	0        	 	0.0	0	144.697563500144	144.79757000017	0.100006500026211
118574	100	136	stimuli/animals/eagle/animal_eagle04.jpg         	1	2	1	animal_eagle04.jpg   	animals  	0	eagle     	13	eagle04     	133	alive    	1	moves	1	natural 	1	n	0	0        	 	0.0	0	144.847567599965	144.947566600051	0.0999990000855178
118724	100	137	stimuli/nonmovNat/rock/nmn_rock07.jpg            	1	2	1	nmn_rock07.jpg       	nonmovNat	5	rock      	30	rock07      	306	not_alive	0	still	0	natural 	1	n	0	0        	 	0.0	0	144.997571400134	145.09756350005	0.0999920999165624
118874	100	138	stimuli/animals2/bee/animal_bee03.jpg            	1	2	1	animal_bee03.jpg     	animals2 	1	bee       	0	bee03       	2	alive    	1	moves	1	natural 	1	n	0	0        	 	0.0	0	145.147574400064	145.247567499988	0.0999930999241769
119024	100	139	stimuli/animals2/whale/animal_whale09.jpg        	1	2	1	animal_whale09.jpg   	animals2 	1	whale     	39	whale09     	398	alive    	1	moves	1	natural 	1	n	0	0        	 	0.0	0	145.297577999998	145.397587800166	0.100009800167754
119174	100	140	stimuli/nonmovArt/bench/nma_bench05.jpg          	1	2	1	nma_bench05.jpg      	nonmovArt	4	bench     	1	bench05     	14	not_alive	0	still	0	artefact	0	n	0	0        	 	0.0	0	145.447581300046	145.547574799974	0.0999934999272227
119324	100	141	stimuli/movNat/hotspring/mn_hotspring07.jpg      	1	2	1	mn_hotspring07.jpg   	movNat   	3	hotspring 	21	hotspring07 	216	not_alive	0	moves	1	natural 	1	n	0	0        	 	0.0	0	145.597584400093	145.697580900043	0.0999964999500662
119474	100	142	stimuli/animals2/whale/animal_whale09.jpg        	1	2	1	animal_whale09.jpg   	animals2 	1	whale     	39	whale09     	398	alive    	1	moves	1	natural 	1	n	0	0        	 	0.0	0	145.747589300154	145.847600100096	0.100010799942538
119624	100	143	stimuli/nonmovArt/lock/nma_lock10.jpg            	1	2	1	nma_lock10.jpg       	nonmovArt	4	lock      	24	lock10      	249	not_alive	0	still	0	artefact	0	n	0	0        	 	0.0	0	145.897592300084	145.997586800018	0.0999944999348372
119774	100	144	stimuli/animals2/tiger/animal_tiger09.jpg        	1	2	1	animal_tiger09.jpg   	animals2 	1	tiger     	33	tiger09     	338	alive    	1	moves	1	natural 	1	n	0	0        	 	0.0	0	146.047594200121	146.14758999995	0.0999957998283207
119924	100	145	stimuli/nonmovNat/shell/nmn_shell06.jpg          	1	2	1	nmn_shell06.jpg      	nonmovNat	5	shell     	32	shell06     	325	not_alive	0	still	0	natural 	1	n	0	0        	 	0.0	0	146.197602099972	146.297608500114	0.100006400141865
120074	100	146	stimuli/animals/horse/animal_horse02.jpg         	1	2	1	animal_horse02.jpg   	animals  	0	horse     	20	horse02     	201	alive    	1	moves	1	natural 	1	n	0	0        	 	0.0	0	146.347604300128	146.447615100071	0.100010799942538
120224	100	147	stimuli/plant2/lemontree/plant_lemontree09.jpg   	1	2	1	plant_lemontree09.jpg	plant2   	7	lemontree 	22	lemontree09 	228	alive    	1	still	0	natural 	1	n	0	0        	 	0.0	0	146.497606800171	146.597600599984	0.0999937998130918
120374	100	148	stimuli/movNat/fire/mn_fire10.jpg                	1	2	1	mn_fire10.jpg        	movNat   	3	fire      	15	fire10      	159	not_alive	0	moves	1	natural 	1	n	0	0        	 	0.0	0	146.647611400112	146.747603800148	0.0999924000352621
120524	100	149	stimuli/plant/cactus/plant_cactus04.jpg          	1	2	1	plant_cactus04.jpg   	plant    	6	cactus    	4	cactus04    	43	alive    	1	still	0	natural 	1	n	0	0        	 	0.0	0	146.797614500159	146.897609000094	0.0999944999348372
120674	100	150	stimuli/animals/dolphin/animal_dolphin09.jpg     	1	2	1	animal_dolphin09.jpg 	animals  	0	dolphin   	12	dolphin09   	128	alive    	1	moves	1	natural 	1	n	0	0        	 	0.0	0	146.94761630008	147.047608599998	0.0999922999180853
120824	100	151	stimuli/movNat/fire/mn_fire02.jpg                	1	2	1	mn_fire02.jpg        	movNat   	3	fire      	15	fire02      	151	not_alive	0	moves	1	natural 	1	n	0	0        	 	0.0	0	147.097621000139	147.197614100063	0.0999930999241769
120974	100	152	stimuli/plant2/palmtree/plant_palmtree02.jpg     	1	2	1	plant_palmtree02.jpg 	plant2   	7	palmtree  	27	palmtree02  	271	alive    	1	still	0	natural 	1	n	0	0        	 	0.0	0	147.247627499979	147.347619700013	0.0999922000337392
121124	100	153	stimuli/animals/cat/animal_cat08.jpg             	1	2	1	animal_cat08.jpg     	animals  	0	cat       	6	cat08       	67	alive    	1	moves	1	natural 	1	n	0	0        	 	0.0	0	147.397628200008	147.497624499956	0.0999962999485433
121274	100	154	stimuli/plant/cactus/plant_cactus04.jpg          	1	2	1	plant_cactus04.jpg   	plant    	6	cactus    	4	cactus04    	43	alive    	1	still	0	natural 	1	n	0	0        	 	0.0	0	147.547632399946	147.647625500103	0.0999931001570076
121424	100	155	stimuli/movNat/river/mn_river04.jpg              	1	2	1	mn_river04.jpg       	movNat   	3	river     	29	river04     	293	not_alive	0	moves	1	natural 	1	n	0	0        	 	0.0	0	147.697637400124	147.797650800087	0.100013399962336
121574	100	156	stimuli/plant2/lemontree/plant_lemontree10.jpg   	1	2	1	plant_lemontree10.jpg	plant2   	7	lemontree 	22	lemontree10 	229	alive    	1	still	0	natural 	1	n	0	0        	 	0.0	0	147.847642400069	147.947633099975	0.0999906999059022
121724	100	157	stimuli/movArt/car/ma_car04.jpg                  	1	2	1	ma_car04.jpg         	movArt   	2	car       	5	car04       	53	not_alive	0	moves	1	artefact	0	n	0	0        	 	0.0	0	147.997642500093	148.097638200037	0.0999956999439746
121874	100	158	stimuli/nonmovNat/sand/nmn_sand05.jpg            	1	2	1	nmn_sand05.jpg       	nonmovNat	5	sand      	31	sand05      	314	not_alive	0	still	0	natural 	1	n	0	0        	 	0.0	0	148.147646900034	148.247644399991	0.0999974999576807
122024	100	159	stimuli/animals2/bee/animal_bee07.jpg            	1	2	1	animal_bee07.jpg     	animals2 	1	bee       	0	bee07       	6	alive    	1	moves	1	natural 	1	n	0	0        	 	0.0	0	148.297649400076	148.397644800134	0.0999954000581056
124574	100	160	stimuli/movArt/train/ma_train03.jpg              	1	3	1	ma_train03.jpg       	movArt   	2	train     	34	train03     	342	not_alive	0	moves	1	artefact	0	n	0	0        	 	0.0	0	150.847727100132	150.947721299948	0.0999941998161376
124724	100	161	stimuli/nonmovArt/bench/nma_bench08.jpg          	1	3	1	nma_bench08.jpg      	nonmovArt	4	bench     	1	bench08     	17	not_alive	0	still	0	artefact	0	n	0	0        	 	0.0	0	150.997724300018	151.097717400175	0.0999931001570076
124874	100	162	stimuli/animals2/pigeon/animal_pigeon05.jpg      	1	3	1	animal_pigeon05.jpg  	animals2 	1	pigeon    	28	pigeon05    	284	alive    	1	moves	1	natural 	1	n	0	0        	 	0.0	0	151.147726000054	151.24772069999	0.0999946999363601
125024	100	163	stimuli/plant/grass/plant_grass04.jpg            	1	3	1	plant_grass04.jpg    	plant    	6	grass     	17	grass04     	173	alive    	1	still	0	natural 	1	n	0	0        	 	0.0	0	151.297788599972	151.397727400064	0.0999388000927866
125174	100	164	stimuli/animals/dog/animal_dog01.jpg             	1	3	1	animal_dog01.jpg     	animals  	0	dog       	11	dog01       	110	alive    	1	moves	1	natural 	1	n	0	0        	 	0.0	0	151.447741500102	151.54773030011	0.0999888000078499
125324	100	165	stimuli/nonmovArt/headphones/nma_headphones02.jpg	1	3	1	nma_headphones02.jpg 	nonmovArt	4	headphones	18	headphones02	181	not_alive	0	still	0	artefact	0	n	0	0        	 	0.0	0	151.597740900004	151.697730800137	0.0999899001326412
125474	100	166	stimuli/movNat/river/mn_river10.jpg              	1	3	1	mn_river10.jpg       	movNat   	3	river     	29	river10     	299	not_alive	0	moves	1	natural 	1	n	0	0        	 	0.0	0	151.747743000044	151.847738099983	0.0999950999394059
125624	100	167	stimuli/plant/vine/plant_vine07.jpg              	1	3	1	plant_vine07.jpg     	plant    	6	vine      	36	vine07      	366	alive    	1	still	0	natural 	1	n	0	0        	 	0.0	0	151.897747199982	151.997739800019	0.099992600036785
125774	100	168	stimuli/animals/horse/animal_horse03.jpg         	1	3	1	animal_horse03.jpg   	animals  	0	horse     	20	horse03     	202	alive    	1	moves	1	natural 	1	n	0	0        	 	0.0	0	152.047758700093	152.147743100068	0.0999843999743462
125924	100	169	stimuli/animals2/bee/animal_bee04.jpg            	1	3	1	animal_bee04.jpg     	animals2 	1	bee       	0	bee04       	3	alive    	1	moves	1	natural 	1	n	0	0        	 	0.0	0	152.197753600078	152.297745400108	0.0999918000306934
126074	100	170	stimuli/movNat/waterfall/mn_waterfall06.jpg      	1	3	1	mn_waterfall06.jpg   	movNat   	3	waterfall 	37	waterfall06 	375	not_alive	0	moves	1	natural 	1	n	0	0        	 	0.0	0	152.347757100128	152.447759300005	0.100002199877053
126224	100	171	stimuli/animals/dog/animal_dog06.jpg             	1	3	1	animal_dog06.jpg     	animals  	0	dog       	11	dog06       	115	alive    	1	moves	1	natural 	1	n	0	0        	 	0.0	0	152.497762100073	152.597755300114	0.0999932000413537
126374	100	172	stimuli/movNat/waves/mn_waves04.jpg              	1	3	1	mn_waves04.jpg       	movNat   	3	waves     	38	waves04     	383	not_alive	0	moves	1	natural 	1	n	0	0        	 	0.0	0	152.647776599973	152.747758000158	0.0999814001843333
126524	100	173	stimuli/nonmovArt/headphones/nma_headphones01.jpg	1	3	1	nma_headphones01.jpg 	nonmovArt	4	headphones	18	headphones01	180	not_alive	0	still	0	artefact	0	n	0	0        	 	0.0	0	152.797769300174	152.897778900107	0.100009599933401
126674	100	174	stimuli/plant2/moss/plant_moss06.jpg             	1	3	1	plant_moss06.jpg     	plant2   	7	moss      	25	moss06      	255	alive    	1	still	0	natural 	1	n	0	0        	 	0.0	0	152.947770999977	153.047761399997	0.0999904000200331
126824	100	175	stimuli/plant2/lemontree/plant_lemontree10.jpg   	1	3	1	plant_lemontree10.jpg	plant2   	7	lemontree 	22	lemontree10 	229	alive    	1	still	0	natural 	1	n	0	0        	 	0.0	0	153.097776400158	153.197768100072	0.0999916999135166
126974	100	176	stimuli/nonmovArt/lock/nma_lock01.jpg            	1	3	1	nma_lock01.jpg       	nonmovArt	4	lock      	24	lock01      	240	not_alive	0	still	0	artefact	0	n	0	0        	 	0.0	0	153.247778099962	153.347771900008	0.0999938000459224
127124	100	177	stimuli/movNat/waterfall/mn_waterfall02.jpg      	1	3	1	mn_waterfall02.jpg   	movNat   	3	waterfall 	37	waterfall02 	371	not_alive	0	moves	1	natural 	1	n	0	0        	 	0.0	0	153.397782800021	153.497775699943	0.099992899922654
127274	100	178	stimuli/plant2/fern/plant_fern04.jpg             	1	3	1	plant_fern04.jpg     	plant2   	7	fern      	14	fern04      	143	alive    	1	still	0	natural 	1	n	0	0        	 	0.0	0	153.547787100077	153.647806799971	0.100019699893892
127424	100	179	stimuli/plant2/fern/plant_fern03.jpg             	1	3	1	plant_fern03.jpg     	plant2   	7	fern      	14	fern03      	142	alive    	1	still	0	natural 	1	n	0	0        	 	0.0	0	153.697790100006	153.797784100054	0.0999940000474453
127574	100	180	stimuli/plant/vine/plant_vine08.jpg              	1	3	1	plant_vine08.jpg     	plant    	6	vine      	36	vine08      	367	alive    	1	still	0	natural 	1	n	0	0        	 	0.0	0	153.847797299968	153.947785899974	0.099988600006327
127724	100	181	stimuli/animals/dolphin/animal_dolphin10.jpg     	1	3	1	animal_dolphin10.jpg 	animals  	0	dolphin   	12	dolphin10   	129	alive    	1	moves	1	natural 	1	n	1	0        	 	0.0	0	153.997801400023	154.097791600041	0.0999902000185102
127874	100	182	stimuli/nonmovArt/headphones/nma_headphones08.jpg	1	3	1	nma_headphones08.jpg 	nonmovArt	4	headphones	18	headphones08	187	not_alive	0	still	0	artefact	0	n	1	0        	 	0.0	0	154.147801000159	154.247808200074	0.100007199915126
128024	100	183	stimuli/animals2/pigeon/animal_pigeon06.jpg      	1	3	1	animal_pigeon06.jpg  	animals2 	1	pigeon    	28	pigeon06    	285	alive    	1	moves	1	natural 	1	n	0	1        	f	0.25339169986546	1	154.297803800087	154.397819899954	0.10001609986648
128174	100	184	stimuli/movArt/helicopter/ma_helicopter05.jpg    	1	3	1	ma_helicopter05.jpg  	movArt   	2	helicopter	19	helicopter05	194	not_alive	0	moves	1	artefact	0	n	0	0        	 	0.0	0	154.447822200134	154.547812200151	0.0999900000169873
128324	100	185	stimuli/movArt/bus/ma_bus01.jpg                  	1	3	1	ma_bus01.jpg         	movArt   	2	bus       	3	bus01       	30	not_alive	0	moves	1	artefact	0	n	0	0        	 	0.0	0	154.59782600007	154.697818299988	0.0999922999180853
128474	100	186	stimuli/plant/grass/plant_grass07.jpg            	1	3	1	plant_grass07.jpg    	plant    	6	grass     	17	grass07     	176	alive    	1	still	0	natural 	1	n	0	0        	 	0.0	0	154.747829600004	154.847833300009	0.100003700004891
128624	100	187	stimuli/animals2/tiger/animal_tiger07.jpg        	1	3	1	animal_tiger07.jpg   	animals2 	1	tiger     	33	tiger07     	336	alive    	1	moves	1	natural 	1	n	0	0        	 	0.0	0	154.897825099993	154.997819800163	0.0999947001691908
128774	100	188	stimuli/animals2/tiger/animal_tiger03.jpg        	1	3	1	animal_tiger03.jpg   	animals2 	1	tiger     	33	tiger03     	332	alive    	1	moves	1	natural 	1	n	0	0        	 	0.0	0	155.047827900155	155.147849800065	0.100021899910644
128924	100	189	stimuli/animals2/whale/animal_whale04.jpg        	1	3	1	animal_whale04.jpg   	animals2 	1	whale     	39	whale04     	393	alive    	1	moves	1	natural 	1	n	0	0        	 	0.0	0	155.197846699972	155.29782470013	0.099978000158444
129074	100	190	stimuli/nonmovNat/cliff/nmn_cliff09.jpg          	1	3	1	nmn_cliff09.jpg      	nonmovNat	5	cliff     	7	cliff09     	78	not_alive	0	still	0	natural 	1	n	0	0        	 	0.0	0	155.347852200037	155.447851800127	0.0999996000900865
129224	100	191	stimuli/movArt/car/ma_car10.jpg                  	1	3	1	ma_car10.jpg         	movArt   	2	car       	5	car10       	59	not_alive	0	moves	1	artefact	0	n	0	0        	 	0.0	0	155.497865100158	155.597832400119	0.0999672999605536
129374	100	192	stimuli/plant/flower/plant_flower02.jpg          	1	3	1	plant_flower02.jpg   	plant    	6	flower    	16	flower02    	161	alive    	1	still	0	natural 	1	n	0	0        	 	0.0	0	155.647843300132	155.747854100075	0.100010799942538
129524	100	193	stimuli/plant/tree/plant_tree05.jpg              	1	3	1	plant_tree05.jpg     	plant    	6	tree      	35	tree05      	354	alive    	1	still	0	natural 	1	n	0	0        	 	0.0	0	155.797847700072	155.897843300132	0.0999956000596285
129674	100	194	stimuli/plant2/clover/plant_clover01.jpg         	1	3	1	plant_clover01.jpg   	plant2   	7	clover    	9	clover01    	90	alive    	1	still	0	natural 	1	n	0	0        	 	0.0	0	155.94787360006	156.047860900173	0.0999873001128435
129824	100	195	stimuli/plant/tree/plant_tree02.jpg              	1	3	1	plant_tree02.jpg     	plant    	6	tree      	35	tree02      	351	alive    	1	still	0	natural 	1	n	0	0        	 	0.0	0	156.097859699978	156.197863599984	0.100003900006413
129974	100	196	stimuli/nonmovArt/clothespeg/nma_clothespeg10.jpg	1	3	1	nma_clothespeg10.jpg 	nonmovArt	4	clothespeg	8	clothespeg10	89	not_alive	0	still	0	artefact	0	n	0	0        	 	0.0	0	156.247890500119	156.347862499999	0.0999719998799264
130124	100	197	stimuli/movArt/helicopter/ma_helicopter07.jpg    	1	3	1	ma_helicopter07.jpg  	movArt   	2	helicopter	19	helicopter07	196	not_alive	0	moves	1	artefact	0	n	1	0        	 	0.0	0	156.397894800175	156.497863700148	0.0999688999727368
130274	100	198	stimuli/animals2/lemur/animal_lemur09.jpg        	1	3	1	animal_lemur09.jpg   	animals2 	1	lemur     	23	lemur09     	238	alive    	1	moves	1	natural 	1	n	0	0        	 	0.0	0	156.547874000156	156.647866700077	0.0999926999211311
130424	100	199	stimuli/nonmovArt/mug/nma_mug03.jpg              	1	3	1	nma_mug03.jpg        	nonmovArt	4	mug       	26	mug03       	262	not_alive	0	still	0	artefact	0	n	0	1        	f	0.391961799934506	1	156.697876800084	156.797870700015	0.0999938999302685
130574	100	200	stimuli/movArt/car/ma_car06.jpg                  	1	3	1	ma_car06.jpg         	movArt   	2	car       	5	car06       	55	not_alive	0	moves	1	artefact	0	n	0	0        	 	0.0	0	156.847925800132	156.947883100016	0.0999572998844087
130724	100	201	stimuli/nonmovArt/clothespeg/nma_clothespeg09.jpg	1	3	1	nma_clothespeg09.jpg 	nonmovArt	4	clothespeg	8	clothespeg09	88	not_alive	0	still	0	artefact	0	n	0	0        	 	0.0	0	156.997916999971	157.097885200055	0.099968200083822
130874	100	202	stimuli/animals/horse/animal_horse09.jpg         	1	3	1	animal_horse09.jpg   	animals  	0	horse     	20	horse09     	208	alive    	1	moves	1	natural 	1	n	0	0        	 	0.0	0	157.147897900082	157.247871299973	0.0999733998905867
131024	100	203	stimuli/movNat/river/mn_river02.jpg              	1	3	1	mn_river02.jpg       	movNat   	3	river     	29	river02     	291	not_alive	0	moves	1	natural 	1	n	0	0        	 	0.0	0	157.297898600111	157.397877800046	0.0999791999347508
131174	100	204	stimuli/plant2/palmtree/plant_palmtree01.jpg     	1	3	1	plant_palmtree01.jpg 	plant2   	7	palmtree  	27	palmtree01  	270	alive    	1	still	0	natural 	1	n	0	0        	 	0.0	0	157.44790680008	157.547879599966	0.099972799886018
131324	100	205	stimuli/animals2/pigeon/animal_pigeon04.jpg      	1	3	1	animal_pigeon04.jpg  	animals2 	1	pigeon    	28	pigeon04    	283	alive    	1	moves	1	natural 	1	n	0	0        	 	0.0	0	157.597901199944	157.697884000139	0.0999828001949936
131474	100	206	stimuli/movArt/bus/ma_bus02.jpg                  	1	3	1	ma_bus02.jpg         	movArt   	2	bus       	3	bus02       	31	not_alive	0	moves	1	artefact	0	n	0	0        	 	0.0	0	157.747913000174	157.847905500093	0.0999924999196082
131624	100	207	stimuli/movNat/hotspring/mn_hotspring03.jpg      	1	3	1	mn_hotspring03.jpg   	movNat   	3	hotspring 	21	hotspring03 	212	not_alive	0	moves	1	natural 	1	n	0	0        	 	0.0	0	157.897914000088	157.997906800127	0.0999928000383079
131774	100	208	stimuli/nonmovNat/cliff/nmn_cliff08.jpg          	1	3	1	nmn_cliff08.jpg      	nonmovNat	5	cliff     	7	cliff08     	77	not_alive	0	still	0	natural 	1	n	0	0        	 	0.0	0	158.047918900149	158.147911800072	0.099992899922654
131924	100	209	stimuli/movArt/train/ma_train05.jpg              	1	3	1	ma_train05.jpg       	movArt   	2	train     	34	train05     	344	not_alive	0	moves	1	artefact	0	n	0	0        	 	0.0	0	158.197921399958	158.297898600111	0.0999772001523524
132074	100	210	stimuli/animals2/lemur/animal_lemur02.jpg        	1	3	1	animal_lemur02.jpg   	animals2 	1	lemur     	23	lemur02     	231	alive    	1	moves	1	natural 	1	n	0	0        	 	0.0	0	158.347926200135	158.447893300094	0.0999670999590308
132224	100	211	stimuli/movArt/train/ma_train05.jpg              	1	3	1	ma_train05.jpg       	movArt   	2	train     	34	train05     	344	not_alive	0	moves	1	artefact	0	n	0	0        	 	0.0	0	158.49793000007	158.597909200005	0.0999791999347508
132374	100	212	stimuli/movNat/hotspring/mn_hotspring01.jpg      	1	3	1	mn_hotspring01.jpg   	movNat   	3	hotspring 	21	hotspring01 	210	not_alive	0	moves	1	natural 	1	n	0	0        	 	0.0	0	158.647945600096	158.74791120016	0.0999656000640243
132524	100	213	stimuli/animals/eagle/animal_eagle04.jpg         	1	3	1	animal_eagle04.jpg   	animals  	0	eagle     	13	eagle04     	133	alive    	1	moves	1	natural 	1	n	0	0        	 	0.0	0	158.797920400044	158.897930799983	0.100010399939492
132674	100	214	stimuli/nonmovNat/crystal/nmn_crystal04.jpg      	1	3	1	nmn_crystal04.jpg    	nonmovNat	5	crystal   	10	crystal04   	103	not_alive	0	still	0	natural 	1	n	0	0        	 	0.0	0	158.947940499987	159.047917500138	0.0999770001508296
132824	100	215	stimuli/animals/cat/animal_cat08.jpg             	1	3	1	animal_cat08.jpg     	animals  	0	cat       	6	cat08       	67	alive    	1	moves	1	natural 	1	n	0	0        	 	0.0	0	159.097942800028	159.197914100019	0.0999712999910116
132974	100	216	stimuli/movArt/boat/ma_boat04.jpg                	1	3	1	ma_boat04.jpg        	movArt   	2	boat      	2	boat04      	23	not_alive	0	moves	1	artefact	0	n	0	0        	 	0.0	0	159.247932899976	159.34794560005	0.100012700073421
133124	100	217	stimuli/plant/vine/plant_vine03.jpg              	1	3	1	plant_vine03.jpg     	plant    	6	vine      	36	vine03      	362	alive    	1	still	0	natural 	1	n	0	0        	 	0.0	0	159.397936300142	159.497928899946	0.0999925998039544
133274	100	218	stimuli/animals/dog/animal_dog09.jpg             	1	3	1	animal_dog09.jpg     	animals  	0	dog       	11	dog09       	118	alive    	1	moves	1	natural 	1	n	0	0        	 	0.0	0	159.547956099967	159.647949600127	0.0999935001600534
133424	100	219	stimuli/nonmovNat/shell/nmn_shell09.jpg          	1	3	1	nmn_shell09.jpg      	nonmovNat	5	shell     	32	shell09     	328	not_alive	0	still	0	natural 	1	n	0	0        	 	0.0	0	159.697943600127	159.79795230017	0.100008700042963
133574	100	220	stimuli/plant/tree/plant_tree08.jpg              	1	3	1	plant_tree08.jpg     	plant    	6	tree      	35	tree08      	357	alive    	1	still	0	natural 	1	n	0	0        	 	0.0	0	159.847962900065	159.947914100019	0.0999511999543756
133724	100	221	stimuli/plant2/palmtree/plant_palmtree10.jpg     	1	3	1	plant_palmtree10.jpg 	plant2   	7	palmtree  	27	palmtree10  	279	alive    	1	still	0	natural 	1	n	0	0        	 	0.0	0	159.997947799973	160.097960000159	0.100012200186029
133874	100	222	stimuli/nonmovNat/crystal/nmn_crystal04.jpg      	1	3	1	nmn_crystal04.jpg    	nonmovNat	5	crystal   	10	crystal04   	103	not_alive	0	still	0	natural 	1	n	0	0        	 	0.0	0	160.147958599962	160.24794790009	0.0999893001280725
134024	100	223	stimuli/movArt/helicopter/ma_helicopter01.jpg    	1	3	1	ma_helicopter01.jpg  	movArt   	2	helicopter	19	helicopter01	190	not_alive	0	moves	1	artefact	0	n	0	0        	 	0.0	0	160.297979400028	160.397976800101	0.0999974000733346
134174	100	224	stimuli/nonmovNat/cliff/nmn_cliff01.jpg          	1	3	1	nmn_cliff01.jpg      	nonmovNat	5	cliff     	7	cliff01     	70	not_alive	0	still	0	natural 	1	n	0	0        	 	0.0	0	160.447961500147	160.547955699963	0.0999941998161376
134324	100	225	stimuli/movNat/fire/mn_fire02.jpg                	1	3	1	mn_fire02.jpg        	movNat   	3	fire      	15	fire02      	151	not_alive	0	moves	1	natural 	1	n	1	0        	 	0.0	0	160.597980000079	160.697980799945	0.100000799866393
134474	100	226	stimuli/nonmovNat/rock/nmn_rock09.jpg            	1	3	1	nmn_rock09.jpg       	nonmovNat	5	rock      	30	rock09      	308	not_alive	0	still	0	natural 	1	n	0	0        	 	0.0	0	160.747970400145	160.847979600076	0.100009199930355
134624	100	227	stimuli/nonmovArt/mug/nma_mug03.jpg              	1	3	1	nma_mug03.jpg        	nonmovArt	4	mug       	26	mug03       	262	not_alive	0	still	0	artefact	0	n	0	1        	f	0.292094999924302	1	160.897972699953	160.997982700123	0.100010000169277
134774	100	228	stimuli/nonmovNat/sand/nmn_sand02.jpg            	1	3	1	nmn_sand02.jpg       	nonmovNat	5	sand      	31	sand02      	311	not_alive	0	still	0	natural 	1	n	0	0        	 	0.0	0	161.047976400005	161.14798670006	0.100010300055146
134924	100	229	stimuli/nonmovNat/crystal/nmn_crystal03.jpg      	1	3	1	nmn_crystal03.jpg    	nonmovNat	5	crystal   	10	crystal03   	102	not_alive	0	still	0	natural 	1	n	0	0        	 	0.0	0	161.197995700175	161.297976800008	0.099981099832803
135074	100	230	stimuli/plant2/clover/plant_clover08.jpg         	1	3	1	plant_clover08.jpg   	plant2   	7	clover    	9	clover08    	97	alive    	1	still	0	natural 	1	n	0	0        	 	0.0	0	161.347982099978	161.447998800082	0.100016700103879
135224	100	231	stimuli/movNat/waves/mn_waves06.jpg              	1	3	1	mn_waves06.jpg       	movNat   	3	waves     	38	waves06     	385	not_alive	0	moves	1	natural 	1	n	0	0        	 	0.0	0	161.498001900036	161.597996100085	0.0999942000489682
135374	100	232	stimuli/animals2/lemur/animal_lemur08.jpg        	1	3	1	animal_lemur08.jpg   	animals2 	1	lemur     	23	lemur08     	237	alive    	1	moves	1	natural 	1	n	0	0        	 	0.0	0	161.648000700166	161.747999800136	0.0999990999698639
135524	100	233	stimuli/plant2/fern/plant_fern08.jpg             	1	3	1	plant_fern08.jpg     	plant2   	7	fern      	14	fern08      	147	alive    	1	still	0	natural 	1	n	0	0        	 	0.0	0	161.798013300169	161.897987100063	0.0999737998936325
135674	100	234	stimuli/plant/flower/plant_flower09.jpg          	1	3	1	plant_flower09.jpg   	plant    	6	flower    	16	flower09    	168	alive    	1	still	0	natural 	1	n	0	0        	 	0.0	0	161.948014100082	162.048003100092	0.0999890000093728
135824	100	235	stimuli/movArt/boat/ma_boat10.jpg                	1	3	1	ma_boat10.jpg        	movArt   	2	boat      	2	boat10      	29	not_alive	0	moves	1	artefact	0	n	0	0        	 	0.0	0	162.098015700001	162.19799460005	0.0999789000488818
135974	100	236	stimuli/plant2/moss/plant_moss02.jpg             	1	3	1	plant_moss02.jpg     	plant2   	7	moss      	25	moss02      	251	alive    	1	still	0	natural 	1	n	0	0        	 	0.0	0	162.248023800086	162.348017200129	0.0999934000428766
136124	100	237	stimuli/animals/cat/animal_cat05.jpg             	1	3	1	animal_cat05.jpg     	animals  	0	cat       	6	cat05       	64	alive    	1	moves	1	natural 	1	n	0	0        	 	0.0	0	162.398010900011	162.498022899963	0.100011999951676
136274	100	238	stimuli/nonmovArt/mug/nma_mug03.jpg              	1	3	1	nma_mug03.jpg        	nonmovArt	4	mug       	26	mug03       	262	not_alive	0	still	0	artefact	0	n	0	0        	 	0.0	0	162.548033799976	162.648021100089	0.0999873001128435
136424	100	239	stimuli/movNat/waterfall/mn_waterfall04.jpg      	1	3	1	mn_waterfall04.jpg   	movNat   	3	waterfall 	37	waterfall04 	373	not_alive	0	moves	1	natural 	1	n	0	0        	 	0.0	0	162.698032499989	162.798031799961	0.0999992999713868
140391	100	240	stimuli/plant/tree/plant_tree04.jpg              	1	4	1	plant_tree04.jpg     	plant    	6	tree      	35	tree04      	353	alive    	1	still	0	natural 	1	n	0	0        	 	0.0	0	166.664778799983	166.764767399989	0.099988600006327
140541	100	241	stimuli/movArt/helicopter/ma_helicopter10.jpg    	1	4	1	ma_helicopter10.jpg  	movArt   	2	helicopter	19	helicopter10	199	not_alive	0	moves	1	artefact	0	n	0	0        	 	0.0	0	166.814779400127	166.914769400144	0.0999900000169873
140691	100	242	stimuli/movArt/bus/ma_bus07.jpg                  	1	4	1	ma_bus07.jpg         	movArt   	2	bus       	3	bus07       	36	not_alive	0	moves	1	artefact	0	n	0	0        	 	0.0	0	166.964782699943	167.064801600063	0.100018900120631
140841	100	243	stimuli/movNat/waves/mn_waves03.jpg              	1	4	1	mn_waves03.jpg       	movNat   	3	waves     	38	waves03     	382	not_alive	0	moves	1	natural 	1	n	0	0        	 	0.0	0	167.114785799989	167.214778400026	0.099992600036785
140991	100	244	stimuli/animals/dog/animal_dog03.jpg             	1	4	1	animal_dog03.jpg     	animals  	0	dog       	11	dog03       	112	alive    	1	moves	1	natural 	1	n	0	0        	 	0.0	0	167.264788700035	167.364780900069	0.0999922000337392
141141	100	245	stimuli/movNat/hotspring/mn_hotspring06.jpg      	1	4	1	mn_hotspring06.jpg   	movNat   	3	hotspring 	21	hotspring06 	215	not_alive	0	moves	1	natural 	1	n	0	0        	 	0.0	0	167.414792499971	167.5147841	0.0999916000291705
141291	100	246	stimuli/animals/eagle/animal_eagle01.jpg         	1	4	1	animal_eagle01.jpg   	animals  	0	eagle     	13	eagle01     	130	alive    	1	moves	1	natural 	1	n	0	0        	 	0.0	0	167.564806099981	167.664810399991	0.100004300009459
141441	100	247	stimuli/movArt/bus/ma_bus06.jpg                  	1	4	1	ma_bus06.jpg         	movArt   	2	bus       	3	bus06       	35	not_alive	0	moves	1	artefact	0	n	0	0        	 	0.0	0	167.714800399961	167.814807099989	0.100006700027734
141591	100	248	stimuli/animals/dog/animal_dog10.jpg             	1	4	1	animal_dog10.jpg     	animals  	0	dog       	11	dog10       	119	alive    	1	moves	1	natural 	1	n	0	0        	 	0.0	0	167.864804100012	167.964808500139	0.100004400126636
141741	100	249	stimuli/movNat/waterfall/mn_waterfall06.jpg      	1	4	1	mn_waterfall06.jpg   	movNat   	3	waterfall 	37	waterfall06 	375	not_alive	0	moves	1	natural 	1	n	0	0        	 	0.0	0	168.014804600039	168.114800000098	0.0999954000581056
141891	100	250	stimuli/animals2/tiger/animal_tiger05.jpg        	1	4	1	animal_tiger05.jpg   	animals2 	1	tiger     	33	tiger05     	334	alive    	1	moves	1	natural 	1	n	0	0        	 	0.0	0	168.164829000132	168.264806200052	0.0999771999195218
142041	100	251	stimuli/movNat/river/mn_river03.jpg              	1	4	1	mn_river03.jpg       	movNat   	3	river     	29	river03     	292	not_alive	0	moves	1	natural 	1	n	0	0        	 	0.0	0	168.314813400153	168.414821200073	0.100007799919695
142191	100	252	stimuli/movArt/car/ma_car02.jpg                  	1	4	1	ma_car02.jpg         	movArt   	2	car       	5	car02       	51	not_alive	0	moves	1	artefact	0	n	0	0        	 	0.0	0	168.464817099972	168.564812300028	0.0999952000565827
142341	100	253	stimuli/nonmovNat/cliff/nmn_cliff06.jpg          	1	4	1	nmn_cliff06.jpg      	nonmovNat	5	cliff     	7	cliff06     	75	not_alive	0	still	0	natural 	1	n	0	0        	 	0.0	0	168.614820500137	168.714814200066	0.0999936999287456
142491	100	254	stimuli/nonmovNat/crystal/nmn_crystal10.jpg      	1	4	1	nmn_crystal10.jpg    	nonmovNat	5	crystal   	10	crystal10   	109	not_alive	0	still	0	natural 	1	n	0	0        	 	0.0	0	168.764841200085	168.864819000009	0.0999777999240905
142641	100	255	stimuli/plant2/palmtree/plant_palmtree05.jpg     	1	4	1	plant_palmtree05.jpg 	plant2   	7	palmtree  	27	palmtree05  	274	alive    	1	still	0	natural 	1	n	0	0        	 	0.0	0	168.914858600125	169.014823500067	0.0999648999422789
142791	100	256	stimuli/movArt/boat/ma_boat07.jpg                	1	4	1	ma_boat07.jpg        	movArt   	2	boat      	2	boat07      	26	not_alive	0	moves	1	artefact	0	n	0	0        	 	0.0	0	169.064832400065	169.164826800115	0.0999944000504911
142941	100	257	stimuli/movNat/river/mn_river06.jpg              	1	4	1	mn_river06.jpg       	movNat   	3	river     	29	river06     	295	not_alive	0	moves	1	natural 	1	n	1	0        	 	0.0	0	169.214839900145	169.314829800045	0.0999898998998106
143091	100	258	stimuli/plant/vine/plant_vine04.jpg              	1	4	1	plant_vine04.jpg     	plant    	6	vine      	36	vine04      	363	alive    	1	still	0	natural 	1	n	0	1        	f	0.254376499913633	1	169.364839000162	169.4648339001	0.099994899937883
143241	100	259	stimuli/movNat/hotspring/mn_hotspring04.jpg      	1	4	1	mn_hotspring04.jpg   	movNat   	3	hotspring 	21	hotspring04 	213	not_alive	0	moves	1	natural 	1	n	0	0        	 	0.0	0	169.514859900111	169.614839300048	0.0999793999362737
143391	100	260	stimuli/animals2/lemur/animal_lemur05.jpg        	1	4	1	animal_lemur05.jpg   	animals2 	1	lemur     	23	lemur05     	234	alive    	1	moves	1	natural 	1	n	0	0        	 	0.0	0	169.664863600163	169.764839800075	0.0999761999119073
143541	100	261	stimuli/movArt/train/ma_train09.jpg              	1	4	1	ma_train09.jpg       	movArt   	2	train     	34	train09     	348	not_alive	0	moves	1	artefact	0	n	0	0        	 	0.0	0	169.814854800003	169.914847400039	0.099992600036785
143691	100	262	stimuli/plant/grass/plant_grass08.jpg            	1	4	1	plant_grass08.jpg    	plant    	6	grass     	17	grass08     	177	alive    	1	still	0	natural 	1	n	0	0        	 	0.0	0	169.96485320013	170.064846800175	0.0999936000443995
143841	100	263	stimuli/animals/cat/animal_cat03.jpg             	1	4	1	animal_cat03.jpg     	animals  	0	cat       	6	cat03       	62	alive    	1	moves	1	natural 	1	n	0	0        	 	0.0	0	170.114861200098	170.21485060011	0.0999894000124186
143991	100	264	stimuli/animals/dolphin/animal_dolphin08.jpg     	1	4	1	animal_dolphin08.jpg 	animals  	0	dolphin   	12	dolphin08   	127	alive    	1	moves	1	natural 	1	n	0	0        	 	0.0	0	170.26487240009	170.364851300139	0.0999789000488818
144141	100	265	stimuli/plant2/clover/plant_clover01.jpg         	1	4	1	plant_clover01.jpg   	plant2   	7	clover    	9	clover01    	90	alive    	1	still	0	natural 	1	n	0	0        	 	0.0	0	170.4148728	170.51485919999	0.0999863999895752
144291	100	266	stimuli/animals/cat/animal_cat10.jpg             	1	4	1	animal_cat10.jpg     	animals  	0	cat       	6	cat10       	69	alive    	1	moves	1	natural 	1	n	0	0        	 	0.0	0	170.564870300004	170.66486270004	0.0999924000352621
144441	100	267	stimuli/animals2/tiger/animal_tiger02.jpg        	1	4	1	animal_tiger02.jpg   	animals2 	1	tiger     	33	tiger02     	331	alive    	1	moves	1	natural 	1	n	0	0        	 	0.0	0	170.71487320005	170.814867299981	0.0999940999317914
144591	100	268	stimuli/nonmovArt/mug/nma_mug04.jpg              	1	4	1	nma_mug04.jpg        	nonmovArt	4	mug       	26	mug04       	263	not_alive	0	still	0	artefact	0	n	0	1        	f	0.0	0	170.864887600066	170.964871400036	0.0999837999697775
144741	100	269	stimuli/nonmovArt/headphones/nma_headphones06.jpg	1	4	1	nma_headphones06.jpg 	nonmovArt	4	headphones	18	headphones06	185	not_alive	0	still	0	artefact	0	n	0	0        	 	0.0	0	171.014878700022	171.114887400065	0.100008700042963
144891	100	270	stimuli/animals2/tiger/animal_tiger03.jpg        	1	4	1	animal_tiger03.jpg   	animals2 	1	tiger     	33	tiger03     	332	alive    	1	moves	1	natural 	1	n	0	0        	 	0.0	0	171.164885200094	171.264876200119	0.0999910000246018
145041	100	271	stimuli/animals2/whale/animal_whale04.jpg        	1	4	1	animal_whale04.jpg   	animals2 	1	whale     	39	whale04     	393	alive    	1	moves	1	natural 	1	n	0	0        	 	0.0	0	171.314887000015	171.414879700169	0.0999927001539618
145191	100	272	stimuli/plant/cactus/plant_cactus10.jpg          	1	4	1	plant_cactus10.jpg   	plant    	6	cactus    	4	cactus10    	49	alive    	1	still	0	natural 	1	n	0	0        	 	0.0	0	171.464893100085	171.564886300126	0.0999932000413537
145341	100	273	stimuli/nonmovArt/headphones/nma_headphones09.jpg	1	4	1	nma_headphones09.jpg 	nonmovArt	4	headphones	18	headphones09	188	not_alive	0	still	0	artefact	0	n	0	0        	 	0.0	0	171.614895300008	171.714887800161	0.0999925001524389
145491	100	274	stimuli/plant/flower/plant_flower10.jpg          	1	4	1	plant_flower10.jpg   	plant    	6	flower    	16	flower10    	169	alive    	1	still	0	natural 	1	n	0	0        	 	0.0	0	171.76489989995	171.864896200132	0.099996300181374
145641	100	275	stimuli/animals2/lemur/animal_lemur03.jpg        	1	4	1	animal_lemur03.jpg   	animals2 	1	lemur     	23	lemur03     	232	alive    	1	moves	1	natural 	1	n	0	0        	 	0.0	0	171.914926300058	172.014918799978	0.0999924999196082
145791	100	276	stimuli/animals/dolphin/animal_dolphin01.jpg     	1	4	1	animal_dolphin01.jpg 	animals  	0	dolphin   	12	dolphin01   	120	alive    	1	moves	1	natural 	1	n	1	0        	 	0.0	0	172.064929200104	172.164908100152	0.0999789000488818
145941	100	277	stimuli/plant/vine/plant_vine05.jpg              	1	4	1	plant_vine05.jpg     	plant    	6	vine      	36	vine05      	364	alive    	1	still	0	natural 	1	n	0	0        	 	0.0	0	172.214936800068	172.314910799963	0.0999739998951554
146091	100	278	stimuli/plant/flower/plant_flower10.jpg          	1	4	1	plant_flower10.jpg   	plant    	6	flower    	16	flower10    	169	alive    	1	still	0	natural 	1	n	0	0        	 	0.0	0	172.364939700114	172.464930800023	0.0999910999089479
146241	100	279	stimuli/movNat/waves/mn_waves07.jpg              	1	4	1	mn_waves07.jpg       	movNat   	3	waves     	38	waves07     	386	not_alive	0	moves	1	natural 	1	n	0	0        	 	0.0	0	172.514941900037	172.614921699977	0.0999797999393195
146391	100	280	stimuli/animals/eagle/animal_eagle01.jpg         	1	4	1	animal_eagle01.jpg   	animals  	0	eagle     	13	eagle01     	130	alive    	1	moves	1	natural 	1	n	0	0        	 	0.0	0	172.664926799946	172.764925500145	0.0999987001996487
146541	100	281	stimuli/plant2/clover/plant_clover01.jpg         	1	4	1	plant_clover01.jpg   	plant2   	7	clover    	9	clover01    	90	alive    	1	still	0	natural 	1	n	0	0        	 	0.0	0	172.814933000132	172.914925300051	0.0999922999180853
146691	100	282	stimuli/nonmovNat/sand/nmn_sand06.jpg            	1	4	1	nmn_sand06.jpg       	nonmovNat	5	sand      	31	sand06      	315	not_alive	0	still	0	natural 	1	n	0	0        	 	0.0	0	172.964951500064	173.064927299973	0.0999757999088615
146841	100	283	stimuli/plant2/lemontree/plant_lemontree07.jpg   	1	4	1	plant_lemontree07.jpg	plant2   	7	lemontree 	22	lemontree07 	226	alive    	1	still	0	natural 	1	n	0	0        	 	0.0	0	173.114937199978	173.214945400134	0.100008200155571
146991	100	284	stimuli/movArt/train/ma_train04.jpg              	1	4	1	ma_train04.jpg       	movArt   	2	train     	34	train04     	343	not_alive	0	moves	1	artefact	0	n	0	0        	 	0.0	0	173.264957200037	173.36495980015	0.10000260011293
147141	100	285	stimuli/movNat/fire/mn_fire05.jpg                	1	4	1	mn_fire05.jpg        	movNat   	3	fire      	15	fire05      	154	not_alive	0	moves	1	natural 	1	n	0	0        	 	0.0	0	173.414960399969	173.514939400135	0.0999790001660585
147291	100	286	stimuli/movArt/train/ma_train07.jpg              	1	4	1	ma_train07.jpg       	movArt   	2	train     	34	train07     	346	not_alive	0	moves	1	artefact	0	n	0	0        	 	0.0	0	173.56494670012	173.664941899944	0.099995199823752
147441	100	287	stimuli/nonmovArt/mug/nma_mug06.jpg              	1	4	1	nma_mug06.jpg        	nonmovArt	4	mug       	26	mug06       	265	not_alive	0	still	0	artefact	0	n	0	0        	 	0.0	0	173.714946600143	173.8149462	0.0999995998572558
147591	100	288	stimuli/nonmovArt/headphones/nma_headphones06.jpg	1	4	1	nma_headphones06.jpg 	nonmovArt	4	headphones	18	headphones06	185	not_alive	0	still	0	artefact	0	n	0	0        	 	0.0	0	173.864957600134	173.964956100099	0.0999984999652952
147741	100	289	stimuli/plant2/palmtree/plant_palmtree01.jpg     	1	4	1	plant_palmtree01.jpg 	plant2   	7	palmtree  	27	palmtree01  	270	alive    	1	still	0	natural 	1	n	0	0        	 	0.0	0	174.014959500171	174.114971400006	0.100011899834499
147891	100	290	stimuli/animals2/bee/animal_bee04.jpg            	1	4	1	animal_bee04.jpg     	animals2 	1	bee       	0	bee04       	3	alive    	1	moves	1	natural 	1	n	0	0        	 	0.0	0	174.164964100113	174.264956000028	0.0999918999150395
148041	100	291	stimuli/animals/eagle/animal_eagle10.jpg         	1	4	1	animal_eagle10.jpg   	animals  	0	eagle     	13	eagle10     	139	alive    	1	moves	1	natural 	1	n	0	0        	 	0.0	0	174.31496720016	174.414968300145	0.100001099985093
148191	100	292	stimuli/movArt/boat/ma_boat01.jpg                	1	4	1	ma_boat01.jpg        	movArt   	2	boat      	2	boat01      	20	not_alive	0	moves	1	artefact	0	n	0	0        	 	0.0	0	174.464965100167	174.564966400154	0.100001299986616
148341	100	293	stimuli/nonmovArt/clothespeg/nma_clothespeg04.jpg	1	4	1	nma_clothespeg04.jpg 	nonmovArt	4	clothespeg	8	clothespeg04	83	not_alive	0	still	0	artefact	0	n	0	0        	 	0.0	0	174.614989100024	174.714968200075	0.0999791000504047
148491	100	294	stimuli/plant/grass/plant_grass02.jpg            	1	4	1	plant_grass02.jpg    	plant    	6	grass     	17	grass02     	171	alive    	1	still	0	natural 	1	n	0	0        	 	0.0	0	174.764976599952	174.864981699968	0.100005100015551
148641	100	295	stimuli/plant2/moss/plant_moss10.jpg             	1	4	1	plant_moss10.jpg     	plant2   	7	moss      	25	moss10      	259	alive    	1	still	0	natural 	1	n	0	0        	 	0.0	0	174.914994399995	175.014976900071	0.099982500076294
148791	100	296	stimuli/nonmovArt/mug/nma_mug06.jpg              	1	4	1	nma_mug06.jpg        	nonmovArt	4	mug       	26	mug06       	265	not_alive	0	still	0	artefact	0	n	0	0        	 	0.0	0	175.064991600113	175.164993100101	0.100001499988139
148941	100	297	stimuli/nonmovArt/clothespeg/nma_clothespeg10.jpg	1	4	1	nma_clothespeg10.jpg 	nonmovArt	4	clothespeg	8	clothespeg10	89	not_alive	0	still	0	artefact	0	n	0	0        	 	0.0	0	175.215003200108	175.314984000055	0.099980799946934
149091	100	298	stimuli/nonmovArt/bench/nma_bench04.jpg          	1	4	1	nma_bench04.jpg      	nonmovArt	4	bench     	1	bench04     	13	not_alive	0	still	0	artefact	0	n	1	0        	 	0.0	0	175.365008800058	175.46498639998	0.0999775999225676
149241	100	299	stimuli/movNat/river/mn_river03.jpg              	1	4	1	mn_river03.jpg       	movNat   	3	river     	29	river03     	292	not_alive	0	moves	1	natural 	1	n	0	0        	 	0.0	0	175.515024299966	175.614972500131	0.0999482001643628
149391	100	300	stimuli/plant2/lemontree/plant_lemontree09.jpg   	1	4	1	plant_lemontree09.jpg	plant2   	7	lemontree 	22	lemontree09 	228	alive    	1	still	0	natural 	1	n	0	0        	 	0.0	0	175.665014700033	175.764993600082	0.0999789000488818
149541	100	301	stimuli/plant2/fern/plant_fern06.jpg             	1	4	1	plant_fern06.jpg     	plant2   	7	fern      	14	fern06      	145	alive    	1	still	0	natural 	1	n	0	1        	a	0.442150499904528	1	175.815021099988	175.914996700129	0.0999756001401693
149691	100	302	stimuli/plant2/moss/plant_moss01.jpg             	1	4	1	plant_moss01.jpg     	plant2   	7	moss      	25	moss01      	250	alive    	1	still	0	natural 	1	n	0	0        	 	0.0	0	175.965009200154	176.065002100077	0.099992899922654
149841	100	303	stimuli/movNat/waterfall/mn_waterfall09.jpg      	1	4	1	mn_waterfall09.jpg   	movNat   	3	waterfall 	37	waterfall09 	378	not_alive	0	moves	1	natural 	1	n	0	0        	 	0.0	0	176.115025300067	176.215027200058	0.100001899991184
149991	100	304	stimuli/nonmovArt/clothespeg/nma_clothespeg09.jpg	1	4	1	nma_clothespeg09.jpg 	nonmovArt	4	clothespeg	8	clothespeg09	88	not_alive	0	still	0	artefact	0	n	0	0        	 	0.0	0	176.265019000042	176.365023800172	0.100004800129682
150141	100	305	stimuli/nonmovNat/sand/nmn_sand06.jpg            	1	4	1	nmn_sand06.jpg       	nonmovNat	5	sand      	31	sand06      	315	not_alive	0	still	0	natural 	1	n	0	0        	 	0.0	0	176.415034699952	176.515027200105	0.0999925001524389
150291	100	306	stimuli/nonmovArt/bench/nma_bench10.jpg          	1	4	1	nma_bench10.jpg      	nonmovArt	4	bench     	1	bench10     	19	not_alive	0	still	0	artefact	0	n	0	0        	 	0.0	0	176.565036100103	176.665021300083	0.0999851999804378
150441	100	307	stimuli/nonmovNat/rock/nmn_rock01.jpg            	1	4	1	nmn_rock01.jpg       	nonmovNat	5	rock      	30	rock01      	300	not_alive	0	still	0	natural 	1	n	0	0        	 	0.0	0	176.715043900069	176.81503710011	0.0999932000413537
150591	100	308	stimuli/plant/cactus/plant_cactus10.jpg          	1	4	1	plant_cactus10.jpg   	plant    	6	cactus    	4	cactus10    	49	alive    	1	still	0	natural 	1	n	0	0        	 	0.0	0	176.86502919998	176.965023200028	0.0999940000474453
150741	100	309	stimuli/nonmovNat/cliff/nmn_cliff02.jpg          	1	4	1	nmn_cliff02.jpg      	nonmovNat	5	cliff     	7	cliff02     	71	not_alive	0	still	0	natural 	1	n	0	0        	 	0.0	0	177.015037100064	177.115055199945	0.100018099881709
150891	100	310	stimuli/plant/flower/plant_flower05.jpg          	1	4	1	plant_flower05.jpg   	plant    	6	flower    	16	flower05    	164	alive    	1	still	0	natural 	1	n	0	0        	 	0.0	0	177.165039099986	177.265045600012	0.100006500026211
151041	100	311	stimuli/animals/dolphin/animal_dolphin07.jpg     	1	4	1	animal_dolphin07.jpg 	animals  	0	dolphin   	12	dolphin07   	126	alive    	1	moves	1	natural 	1	n	0	0        	 	0.0	0	177.315041100141	177.415033400059	0.0999922999180853
151191	100	312	stimuli/plant/tree/plant_tree10.jpg              	1	4	1	plant_tree10.jpg     	plant    	6	tree      	35	tree10      	359	alive    	1	still	0	natural 	1	n	0	0        	 	0.0	0	177.465029400075	177.565035799984	0.100006399909034
151341	100	313	stimuli/plant2/fern/plant_fern06.jpg             	1	4	1	plant_fern06.jpg     	plant2   	7	fern      	14	fern06      	145	alive    	1	still	0	natural 	1	n	0	0        	 	0.0	0	177.615047200117	177.715056700166	0.100009500049055
151491	100	314	stimuli/plant2/clover/plant_clover07.jpg         	1	4	1	plant_clover07.jpg   	plant2   	7	clover    	9	clover07    	96	alive    	1	still	0	natural 	1	n	0	0        	 	0.0	0	177.76506070001	177.865066800034	0.100006100023165
151641	100	315	stimuli/movArt/helicopter/ma_helicopter02.jpg    	1	4	1	ma_helicopter02.jpg  	movArt   	2	helicopter	19	helicopter02	191	not_alive	0	moves	1	artefact	0	n	0	0        	 	0.0	0	177.915055599995	178.015064500039	0.100008900044486
151791	100	316	stimuli/nonmovNat/shell/nmn_shell04.jpg          	1	4	1	nmn_shell04.jpg      	nonmovNat	5	shell     	32	shell04     	323	not_alive	0	still	0	natural 	1	n	0	0        	 	0.0	0	178.065085400129	178.165070699994	0.0999852998647839
151941	100	317	stimuli/movArt/bus/ma_bus10.jpg                  	1	4	1	ma_bus10.jpg         	movArt   	2	bus       	3	bus10       	39	not_alive	0	moves	1	artefact	0	n	0	0        	 	0.0	0	178.215095899999	178.315082899993	0.0999869999941438
152091	100	318	stimuli/plant2/fern/plant_fern01.jpg             	1	4	1	plant_fern01.jpg     	plant2   	7	fern      	14	fern01      	140	alive    	1	still	0	natural 	1	n	0	0        	 	0.0	0	178.365065800026	178.465064400109	0.099998600082472
152241	100	319	stimuli/nonmovArt/lock/nma_lock01.jpg            	1	4	1	nma_lock01.jpg       	nonmovArt	4	lock      	24	lock01      	240	not_alive	0	still	0	artefact	0	n	0	0        	 	0.0	0	178.515070300084	178.615067000035	0.0999966999515891
154175	100	320	stimuli/nonmovNat/sand/nmn_sand09.jpg            	1	5	1	nmn_sand09.jpg       	nonmovNat	5	sand      	31	sand09      	318	not_alive	0	still	0	natural 	1	n	0	0        	 	0.0	0	180.448468300048	180.548437700141	0.0999694000929594
154325	100	321	stimuli/nonmovNat/shell/nmn_shell01.jpg          	1	5	1	nmn_shell01.jpg      	nonmovNat	5	shell     	32	shell01     	320	not_alive	0	still	0	natural 	1	n	0	0        	 	0.0	0	180.598447300028	180.698440100066	0.0999928000383079
154475	100	322	stimuli/animals2/pigeon/animal_pigeon10.jpg      	1	5	1	animal_pigeon10.jpg  	animals2 	1	pigeon    	28	pigeon10    	289	alive    	1	moves	1	natural 	1	n	0	0        	 	0.0	0	180.748454600107	180.848446100019	0.0999914999119937
154625	100	323	stimuli/movNat/waterfall/mn_waterfall01.jpg      	1	5	1	mn_waterfall01.jpg   	movNat   	3	waterfall 	37	waterfall01 	370	not_alive	0	moves	1	natural 	1	n	0	0        	 	0.0	0	180.898456700146	180.998450000072	0.0999932999256998
154775	100	324	stimuli/movNat/waves/mn_waves05.jpg              	1	5	1	mn_waves05.jpg       	movNat   	3	waves     	38	waves05     	384	not_alive	0	moves	1	natural 	1	n	0	0        	 	0.0	0	181.048462799983	181.148451999994	0.0999892000108957
154925	100	325	stimuli/plant2/palmtree/plant_palmtree08.jpg     	1	5	1	plant_palmtree08.jpg 	plant2   	7	palmtree  	27	palmtree08  	277	alive    	1	still	0	natural 	1	n	0	0        	 	0.0	0	181.198466000147	181.298455300042	0.0999892998952419
155075	100	326	stimuli/animals/horse/animal_horse01.jpg         	1	5	1	animal_horse01.jpg   	animals  	0	horse     	20	horse01     	200	alive    	1	moves	1	natural 	1	n	0	0        	 	0.0	0	181.348467699951	181.448458899977	0.0999912000261247
155225	100	327	stimuli/nonmovNat/crystal/nmn_crystal02.jpg      	1	5	1	nmn_crystal02.jpg    	nonmovNat	5	crystal   	10	crystal02   	101	not_alive	0	still	0	natural 	1	n	0	0        	 	0.0	0	181.498471800005	181.598465000046	0.0999932000413537
155375	100	328	stimuli/nonmovArt/lock/nma_lock10.jpg            	1	5	1	nma_lock10.jpg       	nonmovArt	4	lock      	24	lock10      	249	not_alive	0	still	0	artefact	0	n	0	0        	 	0.0	0	181.648486800026	181.748471400002	0.0999845999758691
155525	100	329	stimuli/animals/horse/animal_horse10.jpg         	1	5	1	animal_horse10.jpg   	animals  	0	horse     	20	horse10     	209	alive    	1	moves	1	natural 	1	n	0	0        	 	0.0	0	181.798482800135	181.89847120014	0.0999884000048041
155675	100	330	stimuli/plant2/lemontree/plant_lemontree01.jpg   	1	5	1	plant_lemontree01.jpg	plant2   	7	lemontree 	22	lemontree01 	220	alive    	1	still	0	natural 	1	n	0	0        	 	0.0	0	181.948483900167	182.04847160005	0.0999876998830587
155825	100	331	stimuli/plant/grass/plant_grass06.jpg            	1	5	1	plant_grass06.jpg    	plant    	6	grass     	17	grass06     	175	alive    	1	still	0	natural 	1	n	0	0        	 	0.0	0	182.098485399969	182.198479300132	0.0999939001630992
155975	100	332	stimuli/movArt/helicopter/ma_helicopter08.jpg    	1	5	1	ma_helicopter08.jpg  	movArt   	2	helicopter	19	helicopter08	197	not_alive	0	moves	1	artefact	0	n	0	0        	 	0.0	0	182.248502300121	182.34848419996	0.0999818998388946
156125	100	333	stimuli/animals2/bee/animal_bee09.jpg            	1	5	1	animal_bee09.jpg     	animals2 	1	bee       	0	bee09       	8	alive    	1	moves	1	natural 	1	n	0	0        	 	0.0	0	182.398492899956	182.498484800104	0.0999919001478702
156275	100	334	stimuli/plant/tree/plant_tree05.jpg              	1	5	1	plant_tree05.jpg     	plant    	6	tree      	35	tree05      	354	alive    	1	still	0	natural 	1	n	0	0        	 	0.0	0	182.54850689997	182.648519100156	0.100012200186029
156425	100	335	stimuli/animals/horse/animal_horse08.jpg         	1	5	1	animal_horse08.jpg   	animals  	0	horse     	20	horse08     	207	alive    	1	moves	1	natural 	1	n	0	0        	 	0.0	0	182.698499400169	182.798509200104	0.100009799934924
156575	100	336	stimuli/nonmovNat/cliff/nmn_cliff10.jpg          	1	5	1	nmn_cliff10.jpg      	nonmovNat	5	cliff     	7	cliff10     	79	not_alive	0	still	0	natural 	1	n	0	0        	 	0.0	0	182.848505700007	182.948496400146	0.0999907001387328
156725	100	337	stimuli/movArt/boat/ma_boat05.jpg                	1	5	1	ma_boat05.jpg        	movArt   	2	boat      	2	boat05      	24	not_alive	0	moves	1	artefact	0	n	0	0        	 	0.0	0	182.998508400051	183.098501899978	0.0999934999272227
156875	100	338	stimuli/animals2/lemur/animal_lemur01.jpg        	1	5	1	animal_lemur01.jpg   	animals2 	1	lemur     	23	lemur01     	230	alive    	1	moves	1	natural 	1	n	1	0        	 	0.0	0	183.148524000077	183.248520700028	0.0999966999515891
157025	100	339	stimuli/animals2/whale/animal_whale07.jpg        	1	5	1	animal_whale07.jpg   	animals2 	1	whale     	39	whale07     	396	alive    	1	moves	1	natural 	1	n	0	0        	 	0.0	0	183.298515100032	183.398535500048	0.100020400015637
157175	100	340	stimuli/plant/vine/plant_vine02.jpg              	1	5	1	plant_vine02.jpg     	plant    	6	vine      	36	vine02      	361	alive    	1	still	0	natural 	1	n	0	1        	f	0.292153500020504	1	183.448525300017	183.54851000011	0.0999847000930458
157325	100	341	stimuli/nonmovNat/rock/nmn_rock06.jpg            	1	5	1	nmn_rock06.jpg       	nonmovNat	5	rock      	30	rock06      	305	not_alive	0	still	0	natural 	1	n	0	0        	 	0.0	0	183.598523200024	183.698515000055	0.0999918000306934
157475	100	342	stimuli/nonmovNat/rock/nmn_rock06.jpg            	1	5	1	nmn_rock06.jpg       	nonmovNat	5	rock      	30	rock06      	305	not_alive	0	still	0	natural 	1	n	0	0        	 	0.0	0	183.748527599964	183.848520900123	0.0999933001585305
157625	100	343	stimuli/plant/cactus/plant_cactus06.jpg          	1	5	1	plant_cactus06.jpg   	plant    	6	cactus    	4	cactus06    	45	alive    	1	still	0	natural 	1	n	0	0        	 	0.0	0	183.898532000137	183.998535200022	0.100003199884668
157775	100	344	stimuli/movArt/car/ma_car07.jpg                  	1	5	1	ma_car07.jpg         	movArt   	2	car       	5	car07       	56	not_alive	0	moves	1	artefact	0	n	0	0        	 	0.0	0	184.048531000037	184.148538999958	0.100007999921218
157925	100	345	stimuli/nonmovArt/bench/nma_bench10.jpg          	1	5	1	nma_bench10.jpg      	nonmovArt	4	bench     	1	bench10     	19	not_alive	0	still	0	artefact	0	n	0	0        	 	0.0	0	184.19855020009	184.298531300155	0.0999811000656336
158075	100	346	stimuli/movArt/car/ma_car04.jpg                  	1	5	1	ma_car04.jpg         	movArt   	2	car       	5	car04       	53	not_alive	0	moves	1	artefact	0	n	0	0        	 	0.0	0	184.348541400163	184.44854709995	0.100005699787289
158225	100	347	stimuli/animals2/bee/animal_bee01.jpg            	1	5	1	animal_bee01.jpg     	animals2 	1	bee       	0	bee01       	0	alive    	1	moves	1	natural 	1	n	0	1        	f	1.44200180005282	1	184.498559799977	184.598538500024	0.0999787000473589
158375	100	348	stimuli/animals2/pigeon/animal_pigeon03.jpg      	1	5	1	animal_pigeon03.jpg  	animals2 	1	pigeon    	28	pigeon03    	282	alive    	1	moves	1	natural 	1	n	0	0        	 	0.0	0	184.648549500154	184.748542899964	0.099993399810046
158525	100	349	stimuli/animals2/pigeon/animal_pigeon04.jpg      	1	5	1	animal_pigeon04.jpg  	animals2 	1	pigeon    	28	pigeon04    	283	alive    	1	moves	1	natural 	1	n	0	0        	 	0.0	0	184.798553599976	184.898545100121	0.0999915001448244
158675	100	350	stimuli/plant2/moss/plant_moss04.jpg             	1	5	1	plant_moss04.jpg     	plant2   	7	moss      	25	moss04      	253	alive    	1	still	0	natural 	1	n	0	0        	 	0.0	0	184.948556700023	185.048559500137	0.100002800114453
158825	100	351	stimuli/animals2/whale/animal_whale09.jpg        	1	5	1	animal_whale09.jpg   	animals2 	1	whale     	39	whale09     	398	alive    	1	moves	1	natural 	1	n	0	0        	 	0.0	0	185.098572000163	185.198553400114	0.0999813999515027
158975	100	352	stimuli/nonmovNat/shell/nmn_shell01.jpg          	1	5	1	nmn_shell01.jpg      	nonmovNat	5	shell     	32	shell01     	320	not_alive	0	still	0	natural 	1	n	0	0        	 	0.0	0	185.248591700103	185.34855630016	0.0999646000564098
159125	100	353	stimuli/movNat/fire/mn_fire09.jpg                	1	5	1	mn_fire09.jpg        	movNat   	3	fire      	15	fire09      	158	not_alive	0	moves	1	natural 	1	n	0	0        	 	0.0	0	185.398578300141	185.498558399966	0.0999800998251885
159275	100	354	stimuli/animals/dog/animal_dog01.jpg             	1	5	1	animal_dog01.jpg     	animals  	0	dog       	11	dog01       	110	alive    	1	moves	1	natural 	1	n	0	0        	 	0.0	0	185.548574600136	185.64856370003	0.099989099893719
159425	100	355	stimuli/movNat/fire/mn_fire07.jpg                	1	5	1	mn_fire07.jpg        	movNat   	3	fire      	15	fire07      	156	not_alive	0	moves	1	natural 	1	n	0	0        	 	0.0	0	185.698575900169	185.798570299987	0.0999943998176604
159575	100	356	stimuli/nonmovArt/lock/nma_lock01.jpg            	1	5	1	nma_lock01.jpg       	nonmovArt	4	lock      	24	lock01      	240	not_alive	0	still	0	artefact	0	n	0	0        	 	0.0	0	185.848596299998	185.948571000015	0.0999747000169009
159725	100	357	stimuli/animals/cat/animal_cat09.jpg             	1	5	1	animal_cat09.jpg     	animals  	0	cat       	6	cat09       	68	alive    	1	moves	1	natural 	1	n	0	0        	 	0.0	0	185.99859480001	186.098575300071	0.099980500061065
159875	100	358	stimuli/nonmovNat/crystal/nmn_crystal05.jpg      	1	5	1	nmn_crystal05.jpg    	nonmovNat	5	crystal   	10	crystal05   	104	not_alive	0	still	0	natural 	1	n	0	0        	 	0.0	0	186.148586299969	186.248579000123	0.0999927001539618
160025	100	359	stimuli/movNat/hotspring/mn_hotspring08.jpg      	1	5	1	mn_hotspring08.jpg   	movNat   	3	hotspring 	21	hotspring08 	217	not_alive	0	moves	1	natural 	1	n	0	0        	 	0.0	0	186.298589700134	186.398582000053	0.0999922999180853
160175	100	360	stimuli/animals2/pigeon/animal_pigeon08.jpg      	1	5	1	animal_pigeon08.jpg  	animals2 	1	pigeon    	28	pigeon08    	287	alive    	1	moves	1	natural 	1	n	0	0        	 	0.0	0	186.448592399945	186.548585399985	0.0999930000398308
160325	100	361	stimuli/animals2/whale/animal_whale08.jpg        	1	5	1	animal_whale08.jpg   	animals2 	1	whale     	39	whale08     	397	alive    	1	moves	1	natural 	1	n	0	0        	 	0.0	0	186.598602900049	186.698615100002	0.100012199953198
160475	100	362	stimuli/nonmovArt/headphones/nma_headphones10.jpg	1	5	1	nma_headphones10.jpg 	nonmovArt	4	headphones	18	headphones10	189	not_alive	0	still	0	artefact	0	n	0	0        	 	0.0	0	186.748600800056	186.848594699986	0.0999938999302685
160625	100	363	stimuli/animals2/bee/animal_bee06.jpg            	1	5	1	animal_bee06.jpg     	animals2 	1	bee       	0	bee06       	5	alive    	1	moves	1	natural 	1	n	0	0        	 	0.0	0	186.898603100097	186.998596100137	0.0999930000398308
160775	100	364	stimuli/movNat/waterfall/mn_waterfall05.jpg      	1	5	1	mn_waterfall05.jpg   	movNat   	3	waterfall 	37	waterfall05 	374	not_alive	0	moves	1	natural 	1	n	0	0        	 	0.0	0	187.048606900033	187.148600500077	0.0999936000443995
160925	100	365	stimuli/movNat/waterfall/mn_waterfall09.jpg      	1	5	1	mn_waterfall09.jpg   	movNat   	3	waterfall 	37	waterfall09 	378	not_alive	0	moves	1	natural 	1	n	0	0        	 	0.0	0	187.198611699976	187.298611100065	0.0999994000885636
161075	100	366	stimuli/animals/cat/animal_cat08.jpg             	1	5	1	animal_cat08.jpg     	animals  	0	cat       	6	cat08       	67	alive    	1	moves	1	natural 	1	n	0	0        	 	0.0	0	187.348613800015	187.448607299942	0.0999934999272227
161225	100	367	stimuli/nonmovArt/bench/nma_bench09.jpg          	1	5	1	nma_bench09.jpg      	nonmovArt	4	bench     	1	bench09     	18	not_alive	0	still	0	artefact	0	n	0	0        	 	0.0	0	187.498629400041	187.598611500114	0.0999821000732482
161375	100	368	stimuli/plant/grass/plant_grass05.jpg            	1	5	1	plant_grass05.jpg    	plant    	6	grass     	17	grass05     	174	alive    	1	still	0	natural 	1	n	0	0        	 	0.0	0	187.648624300025	187.748614100041	0.0999898000154644
161525	100	369	stimuli/nonmovNat/cliff/nmn_cliff07.jpg          	1	5	1	nmn_cliff07.jpg      	nonmovNat	5	cliff     	7	cliff07     	76	not_alive	0	still	0	natural 	1	n	0	0        	 	0.0	0	187.79862929997	187.898618000094	0.0999887001235038
161675	100	370	stimuli/animals/dolphin/animal_dolphin05.jpg     	1	5	1	animal_dolphin05.jpg 	animals  	0	dolphin   	12	dolphin05   	124	alive    	1	moves	1	natural 	1	n	1	0        	 	0.0	0	187.948631200008	188.048620200017	0.0999890000093728
161825	100	371	stimuli/plant/tree/plant_tree07.jpg              	1	5	1	plant_tree07.jpg     	plant    	6	tree      	35	tree07      	356	alive    	1	still	0	natural 	1	n	0	0        	 	0.0	0	188.098634200171	188.198642299976	0.100008099805564
161975	100	372	stimuli/movArt/train/ma_train06.jpg              	1	5	1	ma_train06.jpg       	movArt   	2	train     	34	train06     	345	not_alive	0	moves	1	artefact	0	n	0	1        	f	0.305452200118452	1	188.248636400094	188.348629000131	0.099992600036785
162125	100	373	stimuli/animals2/whale/animal_whale10.jpg        	1	5	1	animal_whale10.jpg   	animals2 	1	whale     	39	whale10     	399	alive    	1	moves	1	natural 	1	n	0	0        	 	0.0	0	188.398644000059	188.498633400071	0.0999894000124186
162275	100	374	stimuli/movNat/hotspring/mn_hotspring06.jpg      	1	5	1	mn_hotspring06.jpg   	movNat   	3	hotspring 	21	hotspring06 	215	not_alive	0	moves	1	natural 	1	n	0	0        	 	0.0	0	188.548645300092	188.648639000021	0.0999936999287456
162425	100	375	stimuli/animals/horse/animal_horse07.jpg         	1	5	1	animal_horse07.jpg   	animals  	0	horse     	20	horse07     	206	alive    	1	moves	1	natural 	1	n	0	0        	 	0.0	0	188.69864720013	188.798641599948	0.0999943998176604
162575	100	376	stimuli/animals/dolphin/animal_dolphin09.jpg     	1	5	1	animal_dolphin09.jpg 	animals  	0	dolphin   	12	dolphin09   	128	alive    	1	moves	1	natural 	1	n	0	0        	 	0.0	0	188.848663900048	188.948673099978	0.100009199930355
162725	100	377	stimuli/nonmovArt/mug/nma_mug01.jpg              	1	5	1	nma_mug01.jpg        	nonmovArt	4	mug       	26	mug01       	260	not_alive	0	still	0	artefact	0	n	0	0        	 	0.0	0	188.998656200012	189.098647700157	0.0999915001448244
162875	100	378	stimuli/plant2/moss/plant_moss03.jpg             	1	5	1	plant_moss03.jpg     	plant2   	7	moss      	25	moss03      	252	alive    	1	still	0	natural 	1	n	0	0        	 	0.0	0	189.148659599945	189.248652399983	0.0999928000383079
163025	100	379	stimuli/movArt/bus/ma_bus03.jpg                  	1	5	1	ma_bus03.jpg         	movArt   	2	bus       	3	bus03       	32	not_alive	0	moves	1	artefact	0	n	0	0        	 	0.0	0	189.298661299981	189.398668000009	0.100006700027734
163175	100	380	stimuli/plant/flower/plant_flower06.jpg          	1	5	1	plant_flower06.jpg   	plant    	6	flower    	16	flower06    	165	alive    	1	still	0	natural 	1	n	0	0        	 	0.0	0	189.448691800004	189.548688000068	0.0999962000641972
163325	100	381	stimuli/movArt/car/ma_car02.jpg                  	1	5	1	ma_car02.jpg         	movArt   	2	car       	5	car02       	51	not_alive	0	moves	1	artefact	0	n	0	0        	 	0.0	0	189.59866950009	189.698679200141	0.100009700050578
163475	100	382	stimuli/movNat/hotspring/mn_hotspring07.jpg      	1	5	1	mn_hotspring07.jpg   	movNat   	3	hotspring 	21	hotspring07 	216	not_alive	0	moves	1	natural 	1	n	0	0        	 	0.0	0	189.748677900061	189.848667599959	0.0999896998982876
163625	100	383	stimuli/nonmovArt/headphones/nma_headphones07.jpg	1	5	1	nma_headphones07.jpg 	nonmovArt	4	headphones	18	headphones07	186	not_alive	0	still	0	artefact	0	n	0	0        	 	0.0	0	189.898676499957	189.998671700014	0.0999952000565827
163775	100	384	stimuli/plant/tree/plant_tree08.jpg              	1	5	1	plant_tree08.jpg     	plant    	6	tree      	35	tree08      	357	alive    	1	still	0	natural 	1	n	0	0        	 	0.0	0	190.048697200138	190.148674899945	0.0999776998069137
163925	100	385	stimuli/animals2/tiger/animal_tiger07.jpg        	1	5	1	animal_tiger07.jpg   	animals2 	1	tiger     	33	tiger07     	336	alive    	1	moves	1	natural 	1	n	0	0        	 	0.0	0	190.198697200045	190.298690400086	0.0999932000413537
164075	100	386	stimuli/nonmovArt/mug/nma_mug10.jpg              	1	5	1	nma_mug10.jpg        	nonmovArt	4	mug       	26	mug10       	269	not_alive	0	still	0	artefact	0	n	0	0        	 	0.0	0	190.348691600142	190.448693500133	0.100001899991184
164225	100	387	stimuli/plant2/lemontree/plant_lemontree05.jpg   	1	5	1	plant_lemontree05.jpg	plant2   	7	lemontree 	22	lemontree05 	224	alive    	1	still	0	natural 	1	n	0	0        	 	0.0	0	190.498707500054	190.59868689999	0.0999793999362737
164375	100	388	stimuli/movNat/fire/mn_fire10.jpg                	1	5	1	mn_fire10.jpg        	movNat   	3	fire      	15	fire10      	159	not_alive	0	moves	1	natural 	1	n	0	0        	 	0.0	0	190.648721999954	190.748702400131	0.0999804001767188
164525	100	389	stimuli/nonmovArt/mug/nma_mug04.jpg              	1	5	1	nma_mug04.jpg        	nonmovArt	4	mug       	26	mug04       	263	not_alive	0	still	0	artefact	0	n	0	0        	 	0.0	0	190.79871270014	190.898707200075	0.0999944999348372
164675	100	390	stimuli/movArt/boat/ma_boat08.jpg                	1	5	1	ma_boat08.jpg        	movArt   	2	boat      	2	boat08      	27	not_alive	0	moves	1	artefact	0	n	0	0        	 	0.0	0	190.948715599952	191.048707300099	0.0999917001463473
164825	100	391	stimuli/animals2/lemur/animal_lemur10.jpg        	1	5	1	animal_lemur10.jpg   	animals2 	1	lemur     	23	lemur10     	239	alive    	1	moves	1	natural 	1	n	0	0        	 	0.0	0	191.098717899993	191.198713000165	0.0999951001722366
164975	100	392	stimuli/movArt/car/ma_car09.jpg                  	1	5	1	ma_car09.jpg         	movArt   	2	car       	5	car09       	58	not_alive	0	moves	1	artefact	0	n	0	0        	 	0.0	0	191.248734000139	191.348724900046	0.099990899907425
165125	100	393	stimuli/movNat/river/mn_river05.jpg              	1	5	1	mn_river05.jpg       	movNat   	3	river     	29	river05     	294	not_alive	0	moves	1	natural 	1	n	0	0        	 	0.0	0	191.398740000092	191.498718800023	0.099978799931705
165275	100	394	stimuli/nonmovNat/cliff/nmn_cliff06.jpg          	1	5	1	nmn_cliff06.jpg      	nonmovNat	5	cliff     	7	cliff06     	75	not_alive	0	still	0	natural 	1	n	0	0        	 	0.0	0	191.54873550008	191.648720900062	0.0999853999819606
165425	100	395	stimuli/plant/flower/plant_flower05.jpg          	1	5	1	plant_flower05.jpg   	plant    	6	flower    	16	flower05    	164	alive    	1	still	0	natural 	1	n	0	0        	 	0.0	0	191.698742000153	191.798750800081	0.100008799927309
165575	100	396	stimuli/nonmovNat/shell/nmn_shell10.jpg          	1	5	1	nmn_shell10.jpg      	nonmovNat	5	shell     	32	shell10     	329	not_alive	0	still	0	natural 	1	n	0	0        	 	0.0	0	191.848730100086	191.948751799995	0.100021699909121
165725	100	397	stimuli/plant/cactus/plant_cactus07.jpg          	1	5	1	plant_cactus07.jpg   	plant    	6	cactus    	4	cactus07    	46	alive    	1	still	0	natural 	1	n	0	0        	 	0.0	0	191.998739700066	192.098727100063	0.0999873999971896
165875	100	398	stimuli/animals2/pigeon/animal_pigeon01.jpg      	1	5	1	animal_pigeon01.jpg  	animals2 	1	pigeon    	28	pigeon01    	280	alive    	1	moves	1	natural 	1	n	0	0        	 	0.0	0	192.148757100105	192.248742599972	0.0999854998663068
166025	100	399	stimuli/animals/dog/animal_dog08.jpg             	1	5	1	animal_dog08.jpg     	animals  	0	dog       	11	dog08       	117	alive    	1	moves	1	natural 	1	n	0	0        	 	0.0	0	192.298763700062	192.398735200055	0.0999714999925345
168942	100	400	stimuli/nonmovArt/lock/nma_lock06.jpg            	1	6	1	nma_lock06.jpg       	nonmovArt	4	lock      	24	lock06      	245	not_alive	0	still	0	artefact	0	n	0	0        	 	0.0	0	195.215481200023	195.315468200017	0.0999869999941438
169092	100	401	stimuli/movNat/fire/mn_fire05.jpg                	1	6	1	mn_fire05.jpg        	movNat   	3	fire      	15	fire05      	154	not_alive	0	moves	1	natural 	1	n	0	0        	 	0.0	0	195.365476700012	195.465485900175	0.100009200163186
169242	100	402	stimuli/nonmovNat/cliff/nmn_cliff09.jpg          	1	6	1	nmn_cliff09.jpg      	nonmovNat	5	cliff     	7	cliff09     	78	not_alive	0	still	0	natural 	1	n	0	0        	 	0.0	0	195.515486899996	195.615473600104	0.0999867001082748
169392	100	403	stimuli/nonmovArt/clothespeg/nma_clothespeg04.jpg	1	6	1	nma_clothespeg04.jpg 	nonmovArt	4	clothespeg	8	clothespeg04	83	not_alive	0	still	0	artefact	0	n	0	0        	 	0.0	0	195.665500200121	195.765479800059	0.0999795999377966
169542	100	404	stimuli/plant/vine/plant_vine02.jpg              	1	6	1	plant_vine02.jpg     	plant    	6	vine      	36	vine02      	361	alive    	1	still	0	natural 	1	n	0	0        	 	0.0	0	195.815490799956	195.915483300108	0.0999925001524389
169692	100	405	stimuli/nonmovArt/clothespeg/nma_clothespeg07.jpg	1	6	1	nma_clothespeg07.jpg 	nonmovArt	4	clothespeg	8	clothespeg07	86	not_alive	0	still	0	artefact	0	n	0	0        	 	0.0	0	195.965495600132	196.065485700034	0.0999900999013334
169842	100	406	stimuli/nonmovNat/sand/nmn_sand08.jpg            	1	6	1	nmn_sand08.jpg       	nonmovNat	5	sand      	31	sand08      	317	not_alive	0	still	0	natural 	1	n	0	0        	 	0.0	0	196.115495500155	196.215489899972	0.0999943998176604
169992	100	407	stimuli/plant2/palmtree/plant_palmtree09.jpg     	1	6	1	plant_palmtree09.jpg 	plant2   	7	palmtree  	27	palmtree09  	278	alive    	1	still	0	natural 	1	n	0	0        	 	0.0	0	196.265501999995	196.36549180001	0.0999898000154644
170142	100	408	stimuli/animals2/bee/animal_bee05.jpg            	1	6	1	animal_bee05.jpg     	animals2 	1	bee       	0	bee05       	4	alive    	1	moves	1	natural 	1	n	0	0        	 	0.0	0	196.415518900147	196.515495700063	0.099976799916476
170292	100	409	stimuli/nonmovNat/sand/nmn_sand08.jpg            	1	6	1	nmn_sand08.jpg       	nonmovNat	5	sand      	31	sand08      	317	not_alive	0	still	0	natural 	1	n	0	0        	 	0.0	0	196.565505899955	196.665499800118	0.0999939001630992
170442	100	410	stimuli/nonmovNat/rock/nmn_rock04.jpg            	1	6	1	nmn_rock04.jpg       	nonmovNat	5	rock      	30	rock04      	303	not_alive	0	still	0	natural 	1	n	0	0        	 	0.0	0	196.715511200018	196.815508000087	0.0999968000687659
170592	100	411	stimuli/plant2/fern/plant_fern09.jpg             	1	6	1	plant_fern09.jpg     	plant2   	7	fern      	14	fern09      	148	alive    	1	still	0	natural 	1	n	0	0        	 	0.0	0	196.865516199963	196.965508399997	0.0999922000337392
170742	100	412	stimuli/movNat/waves/mn_waves09.jpg              	1	6	1	mn_waves09.jpg       	movNat   	3	waves     	38	waves09     	388	not_alive	0	moves	1	natural 	1	n	0	0        	 	0.0	0	197.015518900007	197.115520100109	0.10000120010227
