onset	duration	eventnumber	stimulus_file	blockno	trialno	is_faststream	stim	stim_category	category_number	exemplar	exemplar_number	image_name	image_number	aliveness	aliveness_bin	movement	movement_bin	naturalness	naturalness_bin	response_hand_alive	istarget	response	keypressed	rt	correct	time_stimon	time_stimoff	stimdur
102233	100	0	stimuli/animals/cat/animal_cat08.jpg             	1	1	1	animal_cat08.jpg     	animals  	0	cat       	6	cat08       	67	alive    	1	moves	1	natural 	1	n	0	0        	 	0.0	0	95.2607936999994	95.3607958999928	0.100002199993469
102383	100	1	stimuli/plant/vine/plant_vine01.jpg              	1	1	1	plant_vine01.jpg     	plant    	6	vine      	36	vine01      	360	alive    	1	still	0	natural 	1	n	0	0        	 	0.0	0	95.4108079000143	95.5107917999849	0.0999838999705389
102533	100	2	stimuli/animals2/whale/animal_whale03.jpg        	1	1	1	animal_whale03.jpg   	animals2 	1	whale     	39	whale03     	392	alive    	1	moves	1	natural 	1	n	0	0        	 	0.0	0	95.560800300038	95.6607936000219	0.0999932999839075
102683	100	3	stimuli/nonmovNat/shell/nmn_shell04.jpg          	1	1	1	nmn_shell04.jpg      	nonmovNat	5	shell     	32	shell04     	323	not_alive	0	still	0	natural 	1	n	0	0        	 	0.0	0	95.7108054000419	95.8107997000334	0.099994299991522
102833	100	4	stimuli/plant2/clover/plant_clover01.jpg         	1	1	1	plant_clover01.jpg   	plant2   	7	clover    	9	clover01    	90	alive    	1	still	0	natural 	1	n	0	0        	 	0.0	0	95.8608095000381	95.9608043000335	0.0999947999953292
102983	100	5	stimuli/movNat/waterfall/mn_waterfall07.jpg      	1	1	1	mn_waterfall07.jpg   	movNat   	3	waterfall 	37	waterfall07 	376	not_alive	0	moves	1	natural 	1	n	0	0        	 	0.0	0	96.0108242999995	96.1108055000077	0.0999812000081874
103133	100	6	stimuli/nonmovArt/lock/nma_lock07.jpg            	1	1	1	nma_lock07.jpg       	nonmovArt	4	lock      	24	lock07      	246	not_alive	0	still	0	artefact	0	n	0	0        	 	0.0	0	96.1608285999973	96.2608095000032	0.0999809000059031
103284	100	7	stimuli/animals2/bee/animal_bee08.jpg            	1	1	1	animal_bee08.jpg     	animals2 	1	bee       	0	bee08       	7	alive    	1	moves	1	natural 	1	n	0	0        	 	0.0	0	96.3110970000271	96.4108180000331	0.0997210000059567
103433	100	8	stimuli/plant2/lemontree/plant_lemontree10.jpg   	1	1	1	plant_lemontree10.jpg	plant2   	7	lemontree 	22	lemontree10 	229	alive    	1	still	0	natural 	1	n	0	0        	 	0.0	0	96.4608250000165	96.5608188000042	0.0999937999877147
103583	100	9	stimuli/movNat/river/mn_river08.jpg              	1	1	1	mn_river08.jpg       	movNat   	3	river     	29	river08     	297	not_alive	0	moves	1	natural 	1	n	0	0        	 	0.0	0	96.6108263999922	96.7108216999914	0.0999952999991365
103733	100	10	stimuli/animals/dog/animal_dog02.jpg             	1	1	1	animal_dog02.jpg     	animals  	0	dog       	11	dog02       	111	alive    	1	moves	1	natural 	1	n	0	0        	 	0.0	0	96.7608329000068	96.8608243000345	0.0999914000276476
103884	100	11	stimuli/movArt/train/ma_train09.jpg              	1	1	1	ma_train09.jpg       	movArt   	2	train     	34	train09     	348	not_alive	0	moves	1	artefact	0	n	0	0        	 	0.0	0	96.9108485000324	97.0108274000231	0.0999788999906741
104034	100	12	stimuli/nonmovNat/crystal/nmn_crystal01.jpg      	1	1	1	nmn_crystal01.jpg    	nonmovNat	5	crystal   	10	crystal01   	100	not_alive	0	still	0	natural 	1	n	0	0        	 	0.0	0	97.0608417000039	97.1608340000384	0.0999923000345007
104184	100	13	stimuli/movNat/hotspring/mn_hotspring07.jpg      	1	1	1	mn_hotspring07.jpg   	movNat   	3	hotspring 	21	hotspring07 	216	not_alive	0	moves	1	natural 	1	n	0	0        	 	0.0	0	97.2108404000173	97.3108315999852	0.099991199967917
104334	100	14	stimuli/movArt/helicopter/ma_helicopter02.jpg    	1	1	1	ma_helicopter02.jpg  	movArt   	2	helicopter	19	helicopter02	191	not_alive	0	moves	1	artefact	0	n	0	0        	 	0.0	0	97.3608424999984	97.4608358000405	0.0999933000421152
104484	100	15	stimuli/animals/eagle/animal_eagle01.jpg         	1	1	1	animal_eagle01.jpg   	animals  	0	eagle     	13	eagle01     	130	alive    	1	moves	1	natural 	1	n	0	0        	 	0.0	0	97.5108454999863	97.6108405000414	0.0999950000550598
104634	100	16	stimuli/nonmovArt/lock/nma_lock08.jpg            	1	1	1	nma_lock08.jpg       	nonmovArt	4	lock      	24	lock08      	247	not_alive	0	still	0	artefact	0	n	0	0        	 	0.0	0	97.6608485000324	97.7608398000011	0.0999912999686785
104784	100	17	stimuli/plant2/fern/plant_fern09.jpg             	1	1	1	plant_fern09.jpg     	plant2   	7	fern      	14	fern09      	148	alive    	1	still	0	natural 	1	n	0	0        	 	0.0	0	97.810854499985	97.9108464000164	0.0999919000314549
104934	100	18	stimuli/nonmovArt/mug/nma_mug08.jpg              	1	1	1	nma_mug08.jpg        	nonmovArt	4	mug       	26	mug08       	267	not_alive	0	still	0	artefact	0	n	0	0        	 	0.0	0	97.9608590999851	98.0608523000264	0.0999932000413537
105084	100	19	stimuli/nonmovArt/lock/nma_lock01.jpg            	1	1	1	nma_lock01.jpg       	nonmovArt	4	lock      	24	lock01      	240	not_alive	0	still	0	artefact	0	n	0	0        	 	0.0	0	98.1108627000358	98.2108580000349	0.0999952999991365
105234	100	20	stimuli/animals/dolphin/animal_dolphin09.jpg     	1	1	1	animal_dolphin09.jpg 	animals  	0	dolphin   	12	dolphin09   	128	alive    	1	moves	1	natural 	1	n	0	0        	 	0.0	0	98.2608670000336	98.3608590000076	0.0999919999740086
105384	100	21	stimuli/plant2/clover/plant_clover02.jpg         	1	1	1	plant_clover02.jpg   	plant2   	7	clover    	9	clover02    	91	alive    	1	still	0	natural 	1	n	0	0        	 	0.0	0	98.4108694000169	98.510861799994	0.0999923999770544
105534	100	22	stimuli/animals2/tiger/animal_tiger08.jpg        	1	1	1	animal_tiger08.jpg   	animals2 	1	tiger     	33	tiger08     	337	alive    	1	moves	1	natural 	1	n	0	0        	 	0.0	0	98.560873600014	98.6608870000346	0.100013400020543
105684	100	23	stimuli/movNat/hotspring/mn_hotspring08.jpg      	1	1	1	mn_hotspring08.jpg   	movNat   	3	hotspring 	21	hotspring08 	217	not_alive	0	moves	1	natural 	1	n	0	0        	 	0.0	0	98.7108792000218	98.8108716999996	0.0999924999778159
105834	100	24	stimuli/animals2/whale/animal_whale06.jpg        	1	1	1	animal_whale06.jpg   	animals2 	1	whale     	39	whale06     	395	alive    	1	moves	1	natural 	1	n	0	0        	 	0.0	0	98.8608787000412	98.9608753999928	0.0999966999515891
105984	100	25	stimuli/movNat/fire/mn_fire04.jpg                	1	1	1	mn_fire04.jpg        	movNat   	3	fire      	15	fire04      	153	not_alive	0	moves	1	natural 	1	n	0	0        	 	0.0	0	99.0108833000413	99.1108774000313	0.0999940999899991
106134	100	26	stimuli/plant/flower/plant_flower09.jpg          	1	1	1	plant_flower09.jpg   	plant    	6	flower    	16	flower09    	168	alive    	1	still	0	natural 	1	n	0	0        	 	0.0	0	99.1608882999862	99.2609014000045	0.100013100018259
106284	100	27	stimuli/plant2/moss/plant_moss04.jpg             	1	1	1	plant_moss04.jpg     	plant2   	7	moss      	25	moss04      	253	alive    	1	still	0	natural 	1	n	0	0        	 	0.0	0	99.3108965000138	99.4108865000308	0.0999900000169873
106434	100	28	stimuli/movArt/train/ma_train09.jpg              	1	1	1	ma_train09.jpg       	movArt   	2	train     	34	train09     	348	not_alive	0	moves	1	artefact	0	n	0	0        	 	0.0	0	99.4608979999903	99.5608882000088	0.0999902000185102
106584	100	29	stimuli/nonmovNat/rock/nmn_rock07.jpg            	1	1	1	nmn_rock07.jpg       	nonmovNat	5	rock      	30	rock07      	306	not_alive	0	still	0	natural 	1	n	0	0        	 	0.0	0	99.6109006000334	99.7108952000272	0.0999945999938063
106734	100	30	stimuli/nonmovArt/headphones/nma_headphones10.jpg	1	1	1	nma_headphones10.jpg 	nonmovArt	4	headphones	18	headphones10	189	not_alive	0	still	0	artefact	0	n	0	0        	 	0.0	0	99.7609250000096	99.8608989000204	0.0999739000108093
106884	100	31	stimuli/animals/horse/animal_horse05.jpg         	1	1	1	animal_horse05.jpg   	animals  	0	horse     	20	horse05     	204	alive    	1	moves	1	natural 	1	n	0	0        	 	0.0	0	99.9109106000396	100.010903100017	0.0999924999778159
107034	100	32	stimuli/animals/cat/animal_cat10.jpg             	1	1	1	animal_cat10.jpg     	animals  	0	cat       	6	cat10       	69	alive    	1	moves	1	natural 	1	n	0	0        	 	0.0	0	100.060913100024	100.1609054	0.099992299976293
107184	100	33	stimuli/movNat/hotspring/mn_hotspring04.jpg      	1	1	1	mn_hotspring04.jpg   	movNat   	3	hotspring 	21	hotspring04 	213	not_alive	0	moves	1	natural 	1	n	0	0        	 	0.0	0	100.210920000041	100.310912200017	0.0999921999755316
107334	100	34	stimuli/plant2/fern/plant_fern04.jpg             	1	1	1	plant_fern04.jpg     	plant2   	7	fern      	14	fern04      	143	alive    	1	still	0	natural 	1	n	0	0        	 	0.0	0	100.360920200008	100.46091590001	0.0999957000021823
107484	100	35	stimuli/nonmovNat/crystal/nmn_crystal03.jpg      	1	1	1	nmn_crystal03.jpg    	nonmovNat	5	crystal   	10	crystal03   	102	not_alive	0	still	0	natural 	1	n	0	0        	 	0.0	0	100.510925900016	100.610916500038	0.099990600021556
107634	100	36	stimuli/movArt/car/ma_car10.jpg                  	1	1	1	ma_car10.jpg         	movArt   	2	car       	5	car10       	59	not_alive	0	moves	1	artefact	0	n	0	0        	 	0.0	0	100.660928400001	100.760943600035	0.10001520003425
107784	100	37	stimuli/plant/cactus/plant_cactus02.jpg          	1	1	1	plant_cactus02.jpg   	plant    	6	cactus    	4	cactus02    	41	alive    	1	still	0	natural 	1	n	0	0        	 	0.0	0	100.810932799999	100.910924800031	0.0999920000322163
107934	100	38	stimuli/nonmovArt/headphones/nma_headphones10.jpg	1	1	1	nma_headphones10.jpg 	nonmovArt	4	headphones	18	headphones10	189	not_alive	0	still	0	artefact	0	n	0	0        	 	0.0	0	100.960936599993	101.060946100042	0.100009500049055
108084	100	39	stimuli/movArt/boat/ma_boat10.jpg                	1	1	1	ma_boat10.jpg        	movArt   	2	boat      	2	boat10      	29	not_alive	0	moves	1	artefact	0	n	0	0        	 	0.0	0	101.110942900006	101.210937700002	0.0999947999953292
108234	100	40	stimuli/movNat/river/mn_river05.jpg              	1	1	1	mn_river05.jpg       	movNat   	3	river     	29	river05     	294	not_alive	0	moves	1	natural 	1	n	0	0        	 	0.0	0	101.26094430004	101.360937600024	0.0999932999839075
108384	100	41	stimuli/nonmovArt/bench/nma_bench06.jpg          	1	1	1	nma_bench06.jpg      	nonmovArt	4	bench     	1	bench06     	15	not_alive	0	still	0	artefact	0	n	0	0        	 	0.0	0	101.410948700039	101.510941500019	0.0999927999801002
108534	100	42	stimuli/animals/eagle/animal_eagle03.jpg         	1	1	1	animal_eagle03.jpg   	animals  	0	eagle     	13	eagle03     	132	alive    	1	moves	1	natural 	1	n	0	0        	 	0.0	0	101.560953300039	101.660947400029	0.0999940999899991
108684	100	43	stimuli/movArt/bus/ma_bus03.jpg                  	1	1	1	ma_bus03.jpg         	movArt   	2	bus       	3	bus03       	32	not_alive	0	moves	1	artefact	0	n	0	0        	 	0.0	0	101.710956000024	101.810951100022	0.0999950999976136
108834	100	44	stimuli/nonmovNat/cliff/nmn_cliff02.jpg          	1	1	1	nmn_cliff02.jpg      	nonmovNat	5	cliff     	7	cliff02     	71	not_alive	0	still	0	natural 	1	n	0	0        	 	0.0	0	101.860960500024	101.960954300012	0.0999937999877147
108984	100	45	stimuli/nonmovArt/bench/nma_bench05.jpg          	1	1	1	nma_bench05.jpg      	nonmovArt	4	bench     	1	bench05     	14	not_alive	0	still	0	artefact	0	n	0	0        	 	0.0	0	102.010967899987	102.110958100006	0.0999902000185102
109134	100	46	stimuli/nonmovArt/mug/nma_mug04.jpg              	1	1	1	nma_mug04.jpg        	nonmovArt	4	mug       	26	mug04       	263	not_alive	0	still	0	artefact	0	n	0	0        	 	0.0	0	102.160967300006	102.260963100009	0.0999958000029437
109284	100	47	stimuli/plant/vine/plant_vine10.jpg              	1	1	1	plant_vine10.jpg     	plant    	6	vine      	36	vine10      	369	alive    	1	still	0	natural 	1	n	0	0        	 	0.0	0	102.310971400002	102.410965899995	0.0999944999930449
109434	100	48	stimuli/movNat/river/mn_river06.jpg              	1	1	1	mn_river06.jpg       	movNat   	3	river     	29	river06     	295	not_alive	0	moves	1	natural 	1	n	0	0        	 	0.0	0	102.460977100011	102.560984599986	0.100007499975618
109584	100	49	stimuli/nonmovNat/shell/nmn_shell01.jpg          	1	1	1	nmn_shell01.jpg      	nonmovNat	5	shell     	32	shell01     	320	not_alive	0	still	0	natural 	1	n	0	0        	 	0.0	0	102.610998000018	102.710976500006	0.0999784999876283
109734	100	50	stimuli/plant/cactus/plant_cactus01.jpg          	1	1	1	plant_cactus01.jpg   	plant    	6	cactus    	4	cactus01    	40	alive    	1	still	0	natural 	1	n	0	0        	 	0.0	0	102.760985200002	102.860976700031	0.0999915000284091
109884	100	51	stimuli/animals2/lemur/animal_lemur08.jpg        	1	1	1	animal_lemur08.jpg   	animals2 	1	lemur     	23	lemur08     	237	alive    	1	moves	1	natural 	1	n	0	0        	 	0.0	0	102.910988899996	103.010982899985	0.0999939999892376
110034	100	52	stimuli/plant/flower/plant_flower10.jpg          	1	1	1	plant_flower10.jpg   	plant    	6	flower    	16	flower10    	169	alive    	1	still	0	natural 	1	n	0	0        	 	0.0	0	103.060992299987	103.160983900016	0.0999916000291705
110184	100	53	stimuli/movArt/car/ma_car04.jpg                  	1	1	1	ma_car04.jpg         	movArt   	2	car       	5	car04       	53	not_alive	0	moves	1	artefact	0	n	0	0        	 	0.0	0	103.210999600007	103.310989400023	0.0999898000154644
110334	100	54	stimuli/animals2/lemur/animal_lemur02.jpg        	1	1	1	animal_lemur02.jpg   	animals2 	1	lemur     	23	lemur02     	231	alive    	1	moves	1	natural 	1	n	1	0        	 	0.0	0	103.361001799989	103.460994200024	0.0999924000352621
110484	100	55	stimuli/nonmovArt/bench/nma_bench04.jpg          	1	1	1	nma_bench04.jpg      	nonmovArt	4	bench     	1	bench04     	13	not_alive	0	still	0	artefact	0	n	0	0        	 	0.0	0	103.511004200031	103.61099960003	0.0999953999998979
110634	100	56	stimuli/plant/cactus/plant_cactus01.jpg          	1	1	1	plant_cactus01.jpg   	plant    	6	cactus    	4	cactus01    	40	alive    	1	still	0	natural 	1	n	0	0        	 	0.0	0	103.661007100018	103.761000500002	0.0999933999846689
110784	100	57	stimuli/nonmovNat/cliff/nmn_cliff05.jpg          	1	1	1	nmn_cliff05.jpg      	nonmovNat	5	cliff     	7	cliff05     	74	not_alive	0	still	0	natural 	1	n	0	1        	f	0.555234700033907	1	103.811010200006	103.911005400005	0.099995199998375
110934	100	58	stimuli/plant2/moss/plant_moss08.jpg             	1	1	1	plant_moss08.jpg     	plant2   	7	moss      	25	moss08      	257	alive    	1	still	0	natural 	1	n	0	0        	 	0.0	0	103.961016800022	104.061011100013	0.099994299991522
111084	100	59	stimuli/nonmovNat/sand/nmn_sand06.jpg            	1	1	1	nmn_sand06.jpg       	nonmovNat	5	sand      	31	sand06      	315	not_alive	0	still	0	natural 	1	n	0	0        	 	0.0	0	104.111020600016	104.211015000008	0.0999943999922834
111234	100	60	stimuli/plant/grass/plant_grass03.jpg            	1	1	1	plant_grass03.jpg    	plant    	6	grass     	17	grass03     	172	alive    	1	still	0	natural 	1	n	0	0        	 	0.0	0	104.261025200016	104.361057700007	0.100032499991357
111384	100	61	stimuli/movArt/bus/ma_bus01.jpg                  	1	1	1	ma_bus01.jpg         	movArt   	2	bus       	3	bus01       	30	not_alive	0	moves	1	artefact	0	n	1	0        	 	0.0	0	104.411026799993	104.511021299986	0.0999944999930449
111534	100	62	stimuli/animals2/tiger/animal_tiger02.jpg        	1	1	1	animal_tiger02.jpg   	animals2 	1	tiger     	33	tiger02     	331	alive    	1	moves	1	natural 	1	n	0	0        	 	0.0	0	104.561032400001	104.661025500041	0.0999931000405922
111684	100	63	stimuli/plant2/palmtree/plant_palmtree03.jpg     	1	1	1	plant_palmtree03.jpg 	plant2   	7	palmtree  	27	palmtree03  	272	alive    	1	still	0	natural 	1	n	1	1        	f	0.100191300036386	1	104.711036799999	104.811031499994	0.0999946999945678
111834	100	64	stimuli/plant2/palmtree/plant_palmtree01.jpg     	1	1	1	plant_palmtree01.jpg 	plant2   	7	palmtree  	27	palmtree01  	270	alive    	1	still	0	natural 	1	n	0	0        	 	0.0	0	104.861039000039	104.961034899985	0.0999958999454975
111984	100	65	stimuli/nonmovNat/rock/nmn_rock02.jpg            	1	1	1	nmn_rock02.jpg       	nonmovNat	5	rock      	30	rock02      	301	not_alive	0	still	0	natural 	1	n	0	0        	 	0.0	0	105.011045699997	105.111038000032	0.0999923000345007
112134	100	66	stimuli/nonmovNat/crystal/nmn_crystal07.jpg      	1	1	1	nmn_crystal07.jpg    	nonmovNat	5	crystal   	10	crystal07   	106	not_alive	0	still	0	natural 	1	n	0	1        	f	0.454222800035495	1	105.161047100031	105.261042800033	0.0999957000021823
112284	100	67	stimuli/animals2/lemur/animal_lemur05.jpg        	1	1	1	animal_lemur05.jpg   	animals2 	1	lemur     	23	lemur05     	234	alive    	1	moves	1	natural 	1	n	0	0        	 	0.0	0	105.31106919999	105.411046600027	0.09997740003746
112434	100	68	stimuli/movNat/fire/mn_fire09.jpg                	1	1	1	mn_fire09.jpg        	movNat   	3	fire      	15	fire09      	158	not_alive	0	moves	1	natural 	1	n	0	0        	 	0.0	0	105.461056000029	105.561051100027	0.0999950999976136
112584	100	69	stimuli/plant2/fern/plant_fern07.jpg             	1	1	1	plant_fern07.jpg     	plant2   	7	fern      	14	fern07      	146	alive    	1	still	0	natural 	1	n	0	0        	 	0.0	0	105.611058200011	105.711051999999	0.0999937999877147
112734	100	70	stimuli/nonmovNat/rock/nmn_rock08.jpg            	1	1	1	nmn_rock08.jpg       	nonmovNat	5	rock      	30	rock08      	307	not_alive	0	still	0	natural 	1	n	0	0        	 	0.0	0	105.761064100021	105.861057100003	0.0999929999816231
112884	100	71	stimuli/plant2/moss/plant_moss04.jpg             	1	1	1	plant_moss04.jpg     	plant2   	7	moss      	25	moss04      	253	alive    	1	still	0	natural 	1	n	0	0        	 	0.0	0	105.911069100024	106.011060399993	0.0999912999686785
113034	100	72	stimuli/movNat/fire/mn_fire01.jpg                	1	1	1	mn_fire01.jpg        	movNat   	3	fire      	15	fire01      	150	not_alive	0	moves	1	natural 	1	n	0	0        	 	0.0	0	106.061072000011	106.161065499997	0.0999934999854304
113184	100	73	stimuli/nonmovArt/headphones/nma_headphones08.jpg	1	1	1	nma_headphones08.jpg 	nonmovArt	4	headphones	18	headphones08	187	not_alive	0	still	0	artefact	0	n	0	0        	 	0.0	0	106.211078600027	106.311068400042	0.0999898000154644
113334	100	74	stimuli/animals/dog/animal_dog06.jpg             	1	1	1	animal_dog06.jpg     	animals  	0	dog       	11	dog06       	115	alive    	1	moves	1	natural 	1	n	0	0        	 	0.0	0	106.361079800001	106.461072000035	0.0999922000337392
113484	100	75	stimuli/plant2/palmtree/plant_palmtree02.jpg     	1	1	1	plant_palmtree02.jpg 	plant2   	7	palmtree  	27	palmtree02  	271	alive    	1	still	0	natural 	1	n	0	0        	 	0.0	0	106.511082299985	106.611077999987	0.0999957000021823
113634	100	76	stimuli/movArt/helicopter/ma_helicopter09.jpg    	1	1	1	ma_helicopter09.jpg  	movArt   	2	helicopter	19	helicopter09	198	not_alive	0	moves	1	artefact	0	n	0	0        	 	0.0	0	106.661102499987	106.761080000026	0.0999775000382215
113784	100	77	stimuli/animals2/pigeon/animal_pigeon08.jpg      	1	1	1	animal_pigeon08.jpg  	animals2 	1	pigeon    	28	pigeon08    	287	alive    	1	moves	1	natural 	1	n	0	0        	 	0.0	0	106.811091999989	106.911084500025	0.0999925000360236
113934	100	78	stimuli/movArt/bus/ma_bus09.jpg                  	1	1	1	ma_bus09.jpg         	movArt   	2	bus       	3	bus09       	38	not_alive	0	moves	1	artefact	0	n	0	0        	 	0.0	0	106.961093900027	107.061087900016	0.0999939999892376
114084	100	79	stimuli/movArt/boat/ma_boat04.jpg                	1	1	1	ma_boat04.jpg        	movArt   	2	boat      	2	boat04      	23	not_alive	0	moves	1	artefact	0	n	0	0        	 	0.0	0	107.111102199997	107.211093400023	0.0999912000261247
120134	100	80	stimuli/animals/dolphin/animal_dolphin09.jpg     	1	2	1	animal_dolphin09.jpg 	animals  	0	dolphin   	12	dolphin09   	128	alive    	1	moves	1	natural 	1	n	0	0        	 	0.0	0	113.161268100026	113.261259599996	0.0999914999702014
120284	100	81	stimuli/plant/tree/plant_tree01.jpg              	1	2	1	plant_tree01.jpg     	plant    	6	tree      	35	tree01      	350	alive    	1	still	0	natural 	1	n	0	0        	 	0.0	0	113.311298399989	113.411264499999	0.0999661000096239
120434	100	82	stimuli/animals/dolphin/animal_dolphin10.jpg     	1	2	1	animal_dolphin10.jpg 	animals  	0	dolphin   	12	dolphin10   	129	alive    	1	moves	1	natural 	1	n	0	0        	 	0.0	0	113.4612968	113.561270300008	0.0999735000077635
120584	100	83	stimuli/movArt/train/ma_train10.jpg              	1	2	1	ma_train10.jpg       	movArt   	2	train     	34	train10     	349	not_alive	0	moves	1	artefact	0	n	0	0        	 	0.0	0	113.611275800038	113.711268700019	0.0999928999808617
120734	100	84	stimuli/movArt/helicopter/ma_helicopter08.jpg    	1	2	1	ma_helicopter08.jpg  	movArt   	2	helicopter	19	helicopter08	197	not_alive	0	moves	1	artefact	0	n	0	0        	 	0.0	0	113.761280400038	113.861273900024	0.0999934999854304
120884	100	85	stimuli/plant2/lemontree/plant_lemontree01.jpg   	1	2	1	plant_lemontree01.jpg	plant2   	7	lemontree 	22	lemontree01 	220	alive    	1	still	0	natural 	1	n	0	0        	 	0.0	0	113.911284100031	114.01128929999	0.100005199958105
121034	100	86	stimuli/nonmovNat/shell/nmn_shell01.jpg          	1	2	1	nmn_shell01.jpg      	nonmovNat	5	shell     	32	shell01     	320	not_alive	0	still	0	natural 	1	n	0	0        	 	0.0	0	114.061300300004	114.161281400011	0.099981100007426
121184	100	87	stimuli/movNat/waves/mn_waves07.jpg              	1	2	1	mn_waves07.jpg       	movNat   	3	waves     	38	waves07     	386	not_alive	0	moves	1	natural 	1	n	0	0        	 	0.0	0	114.211303799995	114.311288000026	0.0999842000310309
121334	100	88	stimuli/plant2/lemontree/plant_lemontree10.jpg   	1	2	1	plant_lemontree10.jpg	plant2   	7	lemontree 	22	lemontree10 	229	alive    	1	still	0	natural 	1	n	0	0        	 	0.0	0	114.361302100006	114.461283300014	0.0999812000081874
121484	100	89	stimuli/plant2/clover/plant_clover05.jpg         	1	2	1	plant_clover05.jpg   	plant2   	7	clover    	9	clover05    	94	alive    	1	still	0	natural 	1	n	0	0        	 	0.0	0	114.511316000018	114.611306100036	0.0999901000177488
121634	100	90	stimuli/animals/horse/animal_horse10.jpg         	1	2	1	animal_horse10.jpg   	animals  	0	horse     	20	horse10     	209	alive    	1	moves	1	natural 	1	n	0	0        	 	0.0	0	114.661297200015	114.76129200001	0.0999947999953292
121784	100	91	stimuli/plant/tree/plant_tree10.jpg              	1	2	1	plant_tree10.jpg     	plant    	6	tree      	35	tree10      	359	alive    	1	still	0	natural 	1	n	0	0        	 	0.0	0	114.811301300011	114.911294299993	0.0999929999816231
121934	100	92	stimuli/animals/eagle/animal_eagle09.jpg         	1	2	1	animal_eagle09.jpg   	animals  	0	eagle     	13	eagle09     	138	alive    	1	moves	1	natural 	1	n	0	0        	 	0.0	0	114.961305900011	115.061297799984	0.0999918999732472
122084	100	93	stimuli/animals/horse/animal_horse10.jpg         	1	2	1	animal_horse10.jpg   	animals  	0	horse     	20	horse10     	209	alive    	1	moves	1	natural 	1	n	0	0        	 	0.0	0	115.111312000023	115.211303499993	0.0999914999702014
122234	100	94	stimuli/animals2/pigeon/animal_pigeon05.jpg      	1	2	1	animal_pigeon05.jpg  	animals2 	1	pigeon    	28	pigeon05    	284	alive    	1	moves	1	natural 	1	n	0	0        	 	0.0	0	115.261315500014	115.361337599985	0.100022099970374
122384	100	95	stimuli/movNat/waterfall/mn_waterfall07.jpg      	1	2	1	mn_waterfall07.jpg   	movNat   	3	waterfall 	37	waterfall07 	376	not_alive	0	moves	1	natural 	1	n	0	0        	 	0.0	0	115.411318600003	115.511310000031	0.0999914000276476
122534	100	96	stimuli/nonmovArt/clothespeg/nma_clothespeg05.jpg	1	2	1	nma_clothespeg05.jpg 	nonmovArt	4	clothespeg	8	clothespeg05	84	not_alive	0	still	0	artefact	0	n	0	0        	 	0.0	0	115.561337599996	115.661314700032	0.0999771000351757
122684	100	97	stimuli/animals/cat/animal_cat10.jpg             	1	2	1	animal_cat10.jpg     	animals  	0	cat       	6	cat10       	69	alive    	1	moves	1	natural 	1	n	0	0        	 	0.0	0	115.7113273	115.81132149999	0.0999941999907605
122834	100	98	stimuli/plant/grass/plant_grass05.jpg            	1	2	1	plant_grass05.jpg    	plant    	6	grass     	17	grass05     	174	alive    	1	still	0	natural 	1	n	0	0        	 	0.0	0	115.861329200037	115.961323800031	0.0999945999938063
122984	100	99	stimuli/nonmovNat/sand/nmn_sand10.jpg            	1	2	1	nmn_sand10.jpg       	nonmovNat	5	sand      	31	sand10      	319	not_alive	0	still	0	natural 	1	n	0	0        	 	0.0	0	116.011333200033	116.11132830003	0.0999950999976136
123134	100	100	stimuli/movNat/waves/mn_waves06.jpg              	1	2	1	mn_waves06.jpg       	movNat   	3	waves     	38	waves06     	385	not_alive	0	moves	1	natural 	1	n	0	0        	 	0.0	0	116.161338600039	116.261330700014	0.0999920999747701
123284	100	101	stimuli/animals2/whale/animal_whale08.jpg        	1	2	1	animal_whale08.jpg   	animals2 	1	whale     	39	whale08     	397	alive    	1	moves	1	natural 	1	n	0	0        	 	0.0	0	116.311341300025	116.411370899994	0.100029599969275
123434	100	102	stimuli/nonmovArt/clothespeg/nma_clothespeg02.jpg	1	2	1	nma_clothespeg02.jpg 	nonmovArt	4	clothespeg	8	clothespeg02	81	not_alive	0	still	0	artefact	0	n	0	0        	 	0.0	0	116.461345800024	116.561340300017	0.0999944999930449
123584	100	103	stimuli/movNat/waves/mn_waves02.jpg              	1	2	1	mn_waves02.jpg       	movNat   	3	waves     	38	waves02     	381	not_alive	0	moves	1	natural 	1	n	0	0        	 	0.0	0	116.611350200023	116.711341599992	0.09999139996944
123734	100	104	stimuli/movNat/waterfall/mn_waterfall02.jpg      	1	2	1	mn_waterfall02.jpg   	movNat   	3	waterfall 	37	waterfall02 	371	not_alive	0	moves	1	natural 	1	n	0	0        	 	0.0	0	116.761352300004	116.86134860001	0.099996300006751
123884	100	105	stimuli/nonmovNat/cliff/nmn_cliff01.jpg          	1	2	1	nmn_cliff01.jpg      	nonmovNat	5	cliff     	7	cliff01     	70	not_alive	0	still	0	natural 	1	n	0	0        	 	0.0	0	116.911358100013	117.011352300004	0.0999941999907605
124034	100	106	stimuli/animals2/bee/animal_bee08.jpg            	1	2	1	animal_bee08.jpg     	animals2 	1	bee       	0	bee08       	7	alive    	1	moves	1	natural 	1	n	0	0        	 	0.0	0	117.061362600012	117.161383000028	0.100020400015637
124184	100	107	stimuli/plant/tree/plant_tree03.jpg              	1	2	1	plant_tree03.jpg     	plant    	6	tree      	35	tree03      	352	alive    	1	still	0	natural 	1	n	0	0        	 	0.0	0	117.211364699993	117.311357400031	0.0999927000375465
124334	100	108	stimuli/animals2/bee/animal_bee08.jpg            	1	2	1	animal_bee08.jpg     	animals2 	1	bee       	0	bee08       	7	alive    	1	moves	1	natural 	1	n	0	0        	 	0.0	0	117.361383200041	117.461362200032	0.0999789999914356
124484	100	109	stimuli/plant/grass/plant_grass05.jpg            	1	2	1	plant_grass05.jpg    	plant    	6	grass     	17	grass05     	174	alive    	1	still	0	natural 	1	n	0	0        	 	0.0	0	117.511440400034	117.611367200036	0.0999268000014126
124634	100	110	stimuli/nonmovArt/mug/nma_mug06.jpg              	1	2	1	nma_mug06.jpg        	nonmovArt	4	mug       	26	mug06       	265	not_alive	0	still	0	artefact	0	n	0	0        	 	0.0	0	117.661377299984	117.76138500002	0.100007700035349
124784	100	111	stimuli/animals2/pigeon/animal_pigeon04.jpg      	1	2	1	animal_pigeon04.jpg  	animals2 	1	pigeon    	28	pigeon04    	283	alive    	1	moves	1	natural 	1	n	0	0        	 	0.0	0	117.811383799999	117.911388100008	0.100004300009459
124934	100	112	stimuli/movArt/car/ma_car06.jpg                  	1	2	1	ma_car06.jpg         	movArt   	2	car       	5	car06       	55	not_alive	0	moves	1	artefact	0	n	0	0        	 	0.0	0	117.961385200033	118.061378500017	0.0999932999839075
125084	100	113	stimuli/plant/flower/plant_flower09.jpg          	1	2	1	plant_flower09.jpg   	plant    	6	flower    	16	flower09    	168	alive    	1	still	0	natural 	1	n	0	0        	 	0.0	0	118.111390000035	118.211383600021	0.0999935999861918
125234	100	114	stimuli/animals/dog/animal_dog03.jpg             	1	2	1	animal_dog03.jpg     	animals  	0	dog       	11	dog03       	112	alive    	1	moves	1	natural 	1	n	0	0        	 	0.0	0	118.261449100042	118.361395100015	0.0999459999729879
125384	100	115	stimuli/nonmovNat/sand/nmn_sand10.jpg            	1	2	1	nmn_sand10.jpg       	nonmovNat	5	sand      	31	sand10      	319	not_alive	0	still	0	natural 	1	n	0	0        	 	0.0	0	118.411398100026	118.511403699988	0.10000559996115
125534	100	116	stimuli/plant/vine/plant_vine10.jpg              	1	2	1	plant_vine10.jpg     	plant    	6	vine      	36	vine10      	369	alive    	1	still	0	natural 	1	n	1	0        	 	0.0	0	118.56140180002	118.661396100011	0.099994299991522
125684	100	117	stimuli/movArt/boat/ma_boat09.jpg                	1	2	1	ma_boat09.jpg        	movArt   	2	boat      	2	boat09      	28	not_alive	0	moves	1	artefact	0	n	0	0        	 	0.0	0	118.711404300004	118.811397799989	0.0999934999854304
125834	100	118	stimuli/nonmovArt/clothespeg/nma_clothespeg03.jpg	1	2	1	nma_clothespeg03.jpg 	nonmovArt	4	clothespeg	8	clothespeg03	82	not_alive	0	still	0	artefact	0	n	0	1        	f	0.292153000016697	1	118.861409100005	118.961408700037	0.0999996000318788
125984	100	119	stimuli/animals2/tiger/animal_tiger04.jpg        	1	2	1	animal_tiger04.jpg   	animals2 	1	tiger     	33	tiger04     	333	alive    	1	moves	1	natural 	1	n	0	0        	 	0.0	0	119.011447900033	119.11141360004	0.0999657000065781
126134	100	120	stimuli/plant/cactus/plant_cactus06.jpg          	1	2	1	plant_cactus06.jpg   	plant    	6	cactus    	4	cactus06    	45	alive    	1	still	0	natural 	1	n	0	0        	 	0.0	0	119.161436200025	119.261417200032	0.0999810000066645
126284	100	121	stimuli/movNat/waterfall/mn_waterfall09.jpg      	1	2	1	mn_waterfall09.jpg   	movNat   	3	waterfall 	37	waterfall09 	378	not_alive	0	moves	1	natural 	1	n	0	0        	 	0.0	0	119.311428199988	119.411432699999	0.100004500010982
126434	100	122	stimuli/nonmovArt/mug/nma_mug09.jpg              	1	2	1	nma_mug09.jpg        	nonmovArt	4	mug       	26	mug09       	268	not_alive	0	still	0	artefact	0	n	0	0        	 	0.0	0	119.461423700035	119.561418100027	0.0999943999922834
126584	100	123	stimuli/plant2/moss/plant_moss03.jpg             	1	2	1	plant_moss03.jpg     	plant2   	7	moss      	25	moss03      	252	alive    	1	still	0	natural 	1	n	0	0        	 	0.0	0	119.611455700011	119.71142170002	0.0999660000088625
126734	100	124	stimuli/movArt/train/ma_train04.jpg              	1	2	1	ma_train04.jpg       	movArt   	2	train     	34	train04     	343	not_alive	0	moves	1	artefact	0	n	0	0        	 	0.0	0	119.761448900041	119.861428200034	0.0999792999937199
126884	100	125	stimuli/animals2/tiger/animal_tiger01.jpg        	1	2	1	animal_tiger01.jpg   	animals2 	1	tiger     	33	tiger01     	330	alive    	1	moves	1	natural 	1	n	0	0        	 	0.0	0	119.911438300041	120.011446000019	0.100007699977141
127034	100	126	stimuli/plant2/clover/plant_clover09.jpg         	1	2	1	plant_clover09.jpg   	plant2   	7	clover    	9	clover09    	98	alive    	1	still	0	natural 	1	n	0	0        	 	0.0	0	120.061440200021	120.161452900036	0.100012700015213
127184	100	127	stimuli/animals/dolphin/animal_dolphin07.jpg     	1	2	1	animal_dolphin07.jpg 	animals  	0	dolphin   	12	dolphin07   	126	alive    	1	moves	1	natural 	1	n	0	0        	 	0.0	0	120.211462500039	120.311456900032	0.0999943999922834
127334	100	128	stimuli/animals/cat/animal_cat02.jpg             	1	2	1	animal_cat02.jpg     	animals  	0	cat       	6	cat02       	61	alive    	1	moves	1	natural 	1	n	0	0        	 	0.0	0	120.361446399998	120.461458300008	0.100011900009122
127484	100	129	stimuli/movNat/waves/mn_waves01.jpg              	1	2	1	mn_waves01.jpg       	movNat   	3	waves     	38	waves01     	380	not_alive	0	moves	1	natural 	1	n	0	0        	 	0.0	0	120.511489900004	120.611472500023	0.0999826000188477
127634	100	130	stimuli/movArt/bus/ma_bus06.jpg                  	1	2	1	ma_bus06.jpg         	movArt   	2	bus       	3	bus06       	35	not_alive	0	moves	1	artefact	0	n	1	0        	 	0.0	0	120.661485299992	120.76147670002	0.0999914000276476
127784	100	131	stimuli/movArt/car/ma_car03.jpg                  	1	2	1	ma_car03.jpg         	movArt   	2	car       	5	car03       	52	not_alive	0	moves	1	artefact	0	n	0	0        	 	0.0	0	120.811472200032	120.911481900024	0.10000969999237
127934	100	132	stimuli/animals2/bee/animal_bee06.jpg            	1	2	1	animal_bee06.jpg     	animals2 	1	bee       	0	bee06       	5	alive    	1	moves	1	natural 	1	n	0	1        	f	0.292138300021179	1	120.961476000026	121.06147070002	0.0999946999945678
128084	100	133	stimuli/movArt/boat/ma_boat04.jpg                	1	2	1	ma_boat04.jpg        	movArt   	2	boat      	2	boat04      	23	not_alive	0	moves	1	artefact	0	n	0	0        	 	0.0	0	121.111480200023	121.211502299993	0.100022099970374
128234	100	134	stimuli/movNat/fire/mn_fire10.jpg                	1	2	1	mn_fire10.jpg        	movNat   	3	fire      	15	fire10      	159	not_alive	0	moves	1	natural 	1	n	0	0        	 	0.0	0	121.261502200039	121.361442500027	0.099940299987793
128384	100	135	stimuli/animals2/lemur/animal_lemur02.jpg        	1	2	1	animal_lemur02.jpg   	animals2 	1	lemur     	23	lemur02     	231	alive    	1	moves	1	natural 	1	n	0	0        	 	0.0	0	121.411504900025	121.511496299994	0.09999139996944
128534	100	136	stimuli/plant2/lemontree/plant_lemontree07.jpg   	1	2	1	plant_lemontree07.jpg	plant2   	7	lemontree 	22	lemontree07 	226	alive    	1	still	0	natural 	1	n	0	0        	 	0.0	0	121.561493800022	121.661501900002	0.100008099980187
128684	100	137	stimuli/movArt/helicopter/ma_helicopter06.jpg    	1	2	1	ma_helicopter06.jpg  	movArt   	2	helicopter	19	helicopter06	195	not_alive	0	moves	1	artefact	0	n	0	0        	 	0.0	0	121.711516499985	121.811509100022	0.099992600036785
128834	100	138	stimuli/plant2/lemontree/plant_lemontree03.jpg   	1	2	1	plant_lemontree03.jpg	plant2   	7	lemontree 	22	lemontree03 	222	alive    	1	still	0	natural 	1	n	0	0        	 	0.0	0	121.861516900011	121.96148550004	0.0999686000286602
128984	100	139	stimuli/plant2/clover/plant_clover01.jpg         	1	2	1	plant_clover01.jpg   	plant2   	7	clover    	9	clover01    	90	alive    	1	still	0	natural 	1	n	0	0        	 	0.0	0	122.011519499996	122.111525000015	0.100005500018597
129134	100	140	stimuli/movNat/river/mn_river03.jpg              	1	2	1	mn_river03.jpg       	movNat   	3	river     	29	river03     	292	not_alive	0	moves	1	natural 	1	n	0	0        	 	0.0	0	122.161523399991	122.261507200019	0.0999838000279851
129284	100	141	stimuli/nonmovNat/crystal/nmn_crystal01.jpg      	1	2	1	nmn_crystal01.jpg    	nonmovNat	5	crystal   	10	crystal01   	100	not_alive	0	still	0	natural 	1	n	0	0        	 	0.0	0	122.311533000029	122.411524700001	0.0999916999717243
129434	100	142	stimuli/plant2/fern/plant_fern08.jpg             	1	2	1	plant_fern08.jpg     	plant2   	7	fern      	14	fern08      	147	alive    	1	still	0	natural 	1	n	0	0        	 	0.0	0	122.461531999987	122.561523000011	0.0999910000246018
129584	100	143	stimuli/plant/cactus/plant_cactus07.jpg          	1	2	1	plant_cactus07.jpg   	plant    	6	cactus    	4	cactus07    	46	alive    	1	still	0	natural 	1	n	0	0        	 	0.0	0	122.611535700038	122.711527600011	0.0999918999732472
129734	100	144	stimuli/nonmovNat/cliff/nmn_cliff04.jpg          	1	2	1	nmn_cliff04.jpg      	nonmovNat	5	cliff     	7	cliff04     	73	not_alive	0	still	0	natural 	1	n	0	0        	 	0.0	0	122.761540200037	122.861532500014	0.099992299976293
129884	100	145	stimuli/nonmovArt/clothespeg/nma_clothespeg09.jpg	1	2	1	nma_clothespeg09.jpg 	nonmovArt	4	clothespeg	8	clothespeg09	88	not_alive	0	still	0	artefact	0	n	0	0        	 	0.0	0	122.911543100025	123.01153660001	0.0999934999854304
130034	100	146	stimuli/nonmovNat/sand/nmn_sand05.jpg            	1	2	1	nmn_sand05.jpg       	nonmovNat	5	sand      	31	sand05      	314	not_alive	0	still	0	natural 	1	n	0	0        	 	0.0	0	123.061547400022	123.161523599993	0.099976199970115
130184	100	147	stimuli/animals2/whale/animal_whale09.jpg        	1	2	1	animal_whale09.jpg   	animals2 	1	whale     	39	whale09     	398	alive    	1	moves	1	natural 	1	n	0	0        	 	0.0	0	123.211535600014	123.311535999994	0.100000399979763
130334	100	148	stimuli/movArt/bus/ma_bus01.jpg                  	1	2	1	ma_bus01.jpg         	movArt   	2	bus       	3	bus01       	30	not_alive	0	moves	1	artefact	0	n	0	0        	 	0.0	0	123.36153699999	123.461558800016	0.100021800026298
130484	100	149	stimuli/plant/flower/plant_flower02.jpg          	1	2	1	plant_flower02.jpg   	plant    	6	flower    	16	flower02    	161	alive    	1	still	0	natural 	1	n	0	0        	 	0.0	0	123.511557499995	123.611551699985	0.0999941999907605
130634	100	150	stimuli/nonmovArt/clothespeg/nma_clothespeg09.jpg	1	2	1	nma_clothespeg09.jpg 	nonmovArt	4	clothespeg	8	clothespeg09	88	not_alive	0	still	0	artefact	0	n	0	0        	 	0.0	0	123.661560999986	123.761556699988	0.0999957000021823
130784	100	151	stimuli/nonmovArt/headphones/nma_headphones06.jpg	1	2	1	nma_headphones06.jpg 	nonmovArt	4	headphones	18	headphones06	185	not_alive	0	still	0	artefact	0	n	0	0        	 	0.0	0	123.811545700009	123.911563100002	0.100017399992794
130934	100	152	stimuli/movNat/river/mn_river10.jpg              	1	2	1	mn_river10.jpg       	movNat   	3	river     	29	river10     	299	not_alive	0	moves	1	natural 	1	n	0	0        	 	0.0	0	123.961574200017	124.061567900004	0.0999936999869533
131084	100	153	stimuli/plant2/palmtree/plant_palmtree05.jpg     	1	2	1	plant_palmtree05.jpg 	plant2   	7	palmtree  	27	palmtree05  	274	alive    	1	still	0	natural 	1	n	0	0        	 	0.0	0	124.111575399991	124.211569200037	0.0999938000459224
131234	100	154	stimuli/animals/cat/animal_cat02.jpg             	1	2	1	animal_cat02.jpg     	animals  	0	cat       	6	cat02       	61	alive    	1	moves	1	natural 	1	n	0	0        	 	0.0	0	124.261578900041	124.361570000008	0.0999910999671556
131384	100	155	stimuli/movNat/river/mn_river03.jpg              	1	2	1	mn_river03.jpg       	movNat   	3	river     	29	river03     	292	not_alive	0	moves	1	natural 	1	n	0	0        	 	0.0	0	124.411588300019	124.511567900016	0.0999795999960042
131534	100	156	stimuli/movNat/fire/mn_fire02.jpg                	1	2	1	mn_fire02.jpg        	movNat   	3	fire      	15	fire02      	151	not_alive	0	moves	1	natural 	1	n	0	0        	 	0.0	0	124.561582800001	124.661571100005	0.0999883000040427
131684	100	157	stimuli/movNat/hotspring/mn_hotspring04.jpg      	1	2	1	mn_hotspring04.jpg   	movNat   	3	hotspring 	21	hotspring04 	213	not_alive	0	moves	1	natural 	1	n	0	0        	 	0.0	0	124.711584200035	124.811574799998	0.0999905999633484
131834	100	158	stimuli/plant2/moss/plant_moss01.jpg             	1	2	1	plant_moss01.jpg     	plant2   	7	moss      	25	moss01      	250	alive    	1	still	0	natural 	1	n	0	0        	 	0.0	0	124.861585900013	124.961577599985	0.0999916999717243
131984	100	159	stimuli/animals2/tiger/animal_tiger10.jpg        	1	2	1	animal_tiger10.jpg   	animals2 	1	tiger     	33	tiger10     	339	alive    	1	moves	1	natural 	1	n	0	0        	 	0.0	0	125.011589800008	125.111584700004	0.0999948999960907
135434	100	160	stimuli/plant/tree/plant_tree08.jpg              	1	3	1	plant_tree08.jpg     	plant    	6	tree      	35	tree08      	357	alive    	1	still	0	natural 	1	n	0	0        	 	0.0	0	128.461662999995	128.561655100028	0.0999921000329778
135584	100	161	stimuli/nonmovNat/crystal/nmn_crystal02.jpg      	1	3	1	nmn_crystal02.jpg    	nonmovNat	5	crystal   	10	crystal02   	101	not_alive	0	still	0	natural 	1	n	0	0        	 	0.0	0	128.611667099991	128.711659400025	0.0999923000345007
135734	100	162	stimuli/plant2/fern/plant_fern08.jpg             	1	3	1	plant_fern08.jpg     	plant2   	7	fern      	14	fern08      	147	alive    	1	still	0	natural 	1	n	0	0        	 	0.0	0	128.761685600039	128.861664100026	0.0999784999876283
135884	100	163	stimuli/nonmovNat/crystal/nmn_crystal04.jpg      	1	3	1	nmn_crystal04.jpg    	nonmovNat	5	crystal   	10	crystal04   	103	not_alive	0	still	0	natural 	1	n	0	0        	 	0.0	0	128.911675799987	129.011668200023	0.0999924000352621
136034	100	164	stimuli/nonmovNat/sand/nmn_sand02.jpg            	1	3	1	nmn_sand02.jpg       	nonmovNat	5	sand      	31	sand02      	311	not_alive	0	still	0	natural 	1	n	0	0        	 	0.0	0	129.061675900011	129.161690899986	0.100014999974519
136184	100	165	stimuli/nonmovArt/clothespeg/nma_clothespeg04.jpg	1	3	1	nma_clothespeg04.jpg 	nonmovArt	4	clothespeg	8	clothespeg04	83	not_alive	0	still	0	artefact	0	n	0	0        	 	0.0	0	129.211682800029	129.31167570001	0.0999928999808617
136334	100	166	stimuli/plant2/lemontree/plant_lemontree03.jpg   	1	3	1	plant_lemontree03.jpg	plant2   	7	lemontree 	22	lemontree03 	222	alive    	1	still	0	natural 	1	n	0	0        	 	0.0	0	129.361688600038	129.461711800017	0.10002319997875
136484	100	167	stimuli/movArt/helicopter/ma_helicopter06.jpg    	1	3	1	ma_helicopter06.jpg  	movArt   	2	helicopter	19	helicopter06	195	not_alive	0	moves	1	artefact	0	n	0	0        	 	0.0	0	129.511688400002	129.611681899987	0.0999934999854304
136634	100	168	stimuli/animals/eagle/animal_eagle02.jpg         	1	3	1	animal_eagle02.jpg   	animals  	0	eagle     	13	eagle02     	131	alive    	1	moves	1	natural 	1	n	0	0        	 	0.0	0	129.661694200011	129.761685400037	0.0999912000261247
136784	100	169	stimuli/animals2/pigeon/animal_pigeon05.jpg      	1	3	1	animal_pigeon05.jpg  	animals2 	1	pigeon    	28	pigeon05    	284	alive    	1	moves	1	natural 	1	n	0	0        	 	0.0	0	129.81170000002	129.911707399995	0.100007399974857
136934	100	170	stimuli/nonmovNat/shell/nmn_shell09.jpg          	1	3	1	nmn_shell09.jpg      	nonmovNat	5	shell     	32	shell09     	328	not_alive	0	still	0	natural 	1	n	0	0        	 	0.0	0	129.96170059999	130.061694600037	0.0999940000474453
137084	100	171	stimuli/nonmovArt/headphones/nma_headphones09.jpg	1	3	1	nma_headphones09.jpg 	nonmovArt	4	headphones	18	headphones09	188	not_alive	0	still	0	artefact	0	n	0	0        	 	0.0	0	130.111706900003	130.211722100037	0.10001520003425
137234	100	172	stimuli/plant2/clover/plant_clover03.jpg         	1	3	1	plant_clover03.jpg   	plant2   	7	clover    	9	clover03    	92	alive    	1	still	0	natural 	1	n	1	0        	 	0.0	0	130.261710799998	130.361703800038	0.0999930000398308
137384	100	173	stimuli/nonmovArt/bench/nma_bench06.jpg          	1	3	1	nma_bench06.jpg      	nonmovArt	4	bench     	1	bench06     	15	not_alive	0	still	0	artefact	0	n	0	0        	 	0.0	0	130.411714999995	130.511705200013	0.0999902000185102
137534	100	174	stimuli/nonmovArt/lock/nma_lock09.jpg            	1	3	1	nma_lock09.jpg       	nonmovArt	4	lock      	24	lock09      	248	not_alive	0	still	0	artefact	0	n	0	0        	 	0.0	0	130.561718000041	130.66173360002	0.100015599979088
137684	100	175	stimuli/animals/cat/animal_cat05.jpg             	1	3	1	animal_cat05.jpg     	animals  	0	cat       	6	cat05       	64	alive    	1	moves	1	natural 	1	n	0	1        	f	0.442170199996326	1	130.71172110003	130.811736500007	0.100015399977565
137834	100	176	stimuli/plant/tree/plant_tree01.jpg              	1	3	1	plant_tree01.jpg     	plant    	6	tree      	35	tree01      	350	alive    	1	still	0	natural 	1	n	1	0        	 	0.0	0	130.861727999989	130.961732299998	0.100004300009459
137984	100	177	stimuli/plant/tree/plant_tree06.jpg              	1	3	1	plant_tree06.jpg     	plant    	6	tree      	35	tree06      	355	alive    	1	still	0	natural 	1	n	0	0        	 	0.0	0	131.011730200029	131.11172310001	0.0999928999808617
138134	100	178	stimuli/movNat/waterfall/mn_waterfall05.jpg      	1	3	1	mn_waterfall05.jpg   	movNat   	3	waterfall 	37	waterfall05 	374	not_alive	0	moves	1	natural 	1	n	0	1        	f	0.307530899997801	1	131.161733700021	131.261728600017	0.0999948999960907
138284	100	179	stimuli/movArt/train/ma_train02.jpg              	1	3	1	ma_train02.jpg       	movArt   	2	train     	34	train02     	341	not_alive	0	moves	1	artefact	0	n	0	1        	f	0.542058499995619	1	131.311776100018	131.411731800006	0.0999556999886408
138434	100	180	stimuli/movArt/boat/ma_boat07.jpg                	1	3	1	ma_boat07.jpg        	movArt   	2	boat      	2	boat07      	26	not_alive	0	moves	1	artefact	0	n	0	0        	 	0.0	0	131.461742700019	131.561763200036	0.100020500016399
138584	100	181	stimuli/movArt/boat/ma_boat09.jpg                	1	3	1	ma_boat09.jpg        	movArt   	2	boat      	2	boat09      	28	not_alive	0	moves	1	artefact	0	n	0	0        	 	0.0	0	131.61174600001	131.711757300014	0.100011300004553
138734	100	182	stimuli/animals2/lemur/animal_lemur05.jpg        	1	3	1	animal_lemur05.jpg   	animals2 	1	lemur     	23	lemur05     	234	alive    	1	moves	1	natural 	1	n	0	0        	 	0.0	0	131.761749600002	131.861744399997	0.0999947999953292
138884	100	183	stimuli/movNat/waves/mn_waves09.jpg              	1	3	1	mn_waves09.jpg       	movNat   	3	waves     	38	waves09     	388	not_alive	0	moves	1	natural 	1	n	0	0        	 	0.0	0	131.911788800033	132.011747799988	0.099958999955561
139034	100	184	stimuli/animals2/pigeon/animal_pigeon03.jpg      	1	3	1	animal_pigeon03.jpg  	animals2 	1	pigeon    	28	pigeon03    	282	alive    	1	moves	1	natural 	1	n	0	0        	 	0.0	0	132.061786400038	132.161750300031	0.099963899992872
139184	100	185	stimuli/animals/horse/animal_horse01.jpg         	1	3	1	animal_horse01.jpg   	animals  	0	horse     	20	horse01     	200	alive    	1	moves	1	natural 	1	n	0	0        	 	0.0	0	132.211762599996	132.311761800025	0.099999200028833
139334	100	186	stimuli/animals/dog/animal_dog03.jpg             	1	3	1	animal_dog03.jpg     	animals  	0	dog       	11	dog03       	112	alive    	1	moves	1	natural 	1	n	0	0        	 	0.0	0	132.361765899986	132.461775300035	0.100009400048293
139484	100	187	stimuli/animals/eagle/animal_eagle05.jpg         	1	3	1	animal_eagle05.jpg   	animals  	0	eagle     	13	eagle05     	134	alive    	1	moves	1	natural 	1	n	0	0        	 	0.0	0	132.511793299986	132.611761700013	0.0999684000271372
139634	100	188	stimuli/nonmovNat/shell/nmn_shell06.jpg          	1	3	1	nmn_shell06.jpg      	nonmovNat	5	shell     	32	shell06     	325	not_alive	0	still	0	natural 	1	n	0	0        	 	0.0	0	132.661783399992	132.761766900017	0.0999835000257008
139784	100	189	stimuli/animals2/whale/animal_whale05.jpg        	1	3	1	animal_whale05.jpg   	animals2 	1	whale     	39	whale05     	394	alive    	1	moves	1	natural 	1	n	0	0        	 	0.0	0	132.811791100015	132.911769300001	0.099978199985344
139934	100	190	stimuli/plant2/fern/plant_fern05.jpg             	1	3	1	plant_fern05.jpg     	plant2   	7	fern      	14	fern05      	144	alive    	1	still	0	natural 	1	n	0	0        	 	0.0	0	132.961782200029	133.061797400005	0.100015199976042
140084	100	191	stimuli/movArt/train/ma_train01.jpg              	1	3	1	ma_train01.jpg       	movArt   	2	train     	34	train01     	340	not_alive	0	moves	1	artefact	0	n	0	0        	 	0.0	0	133.111784100009	133.211778900004	0.0999947999953292
140234	100	192	stimuli/movArt/car/ma_car05.jpg                  	1	3	1	ma_car05.jpg         	movArt   	2	car       	5	car05       	54	not_alive	0	moves	1	artefact	0	n	0	0        	 	0.0	0	133.261789300013	133.361782699998	0.0999933999846689
140384	100	193	stimuli/nonmovArt/mug/nma_mug01.jpg              	1	3	1	nma_mug01.jpg        	nonmovArt	4	mug       	26	mug01       	260	not_alive	0	still	0	artefact	0	n	0	0        	 	0.0	0	133.411804200034	133.511785899987	0.099981699953787
140534	100	194	stimuli/nonmovNat/sand/nmn_sand01.jpg            	1	3	1	nmn_sand01.jpg       	nonmovNat	5	sand      	31	sand01      	310	not_alive	0	still	0	natural 	1	n	0	0        	 	0.0	0	133.561808700033	133.661790199985	0.0999814999522641
140684	100	195	stimuli/plant/vine/plant_vine01.jpg              	1	3	1	plant_vine01.jpg     	plant    	6	vine      	36	vine01      	360	alive    	1	still	0	natural 	1	n	0	0        	 	0.0	0	133.711801800004	133.811792700028	0.0999909000238404
140834	100	196	stimuli/animals2/bee/animal_bee01.jpg            	1	3	1	animal_bee01.jpg     	animals2 	1	bee       	0	bee01       	0	alive    	1	moves	1	natural 	1	n	0	0        	 	0.0	0	133.861806000001	133.961796500022	0.0999905000207946
140984	100	197	stimuli/nonmovArt/lock/nma_lock02.jpg            	1	3	1	nma_lock02.jpg       	nonmovArt	4	lock      	24	lock02      	241	not_alive	0	still	0	artefact	0	n	0	0        	 	0.0	0	134.011810199998	134.111803200038	0.0999930000398308
141134	100	198	stimuli/plant/flower/plant_flower02.jpg          	1	3	1	plant_flower02.jpg   	plant    	6	flower    	16	flower02    	161	alive    	1	still	0	natural 	1	n	0	0        	 	0.0	0	134.161813899991	134.261805700022	0.0999918000306934
141284	100	199	stimuli/movArt/car/ma_car02.jpg                  	1	3	1	ma_car02.jpg         	movArt   	2	car       	5	car02       	51	not_alive	0	moves	1	artefact	0	n	0	0        	 	0.0	0	134.311833899992	134.411810200021	0.0999763000290841
141434	100	200	stimuli/movNat/waterfall/mn_waterfall01.jpg      	1	3	1	mn_waterfall01.jpg   	movNat   	3	waterfall 	37	waterfall01 	370	not_alive	0	moves	1	natural 	1	n	0	0        	 	0.0	0	134.461820100027	134.561813500011	0.0999933999846689
141584	100	201	stimuli/plant2/palmtree/plant_palmtree02.jpg     	1	3	1	plant_palmtree02.jpg 	plant2   	7	palmtree  	27	palmtree02  	271	alive    	1	still	0	natural 	1	n	0	0        	 	0.0	0	134.611825200031	134.71181920002	0.0999939999892376
141734	100	202	stimuli/nonmovArt/headphones/nma_headphones05.jpg	1	3	1	nma_headphones05.jpg 	nonmovArt	4	headphones	18	headphones05	184	not_alive	0	still	0	artefact	0	n	0	0        	 	0.0	0	134.761827900016	134.861820199993	0.099992299976293
141884	100	203	stimuli/animals/horse/animal_horse04.jpg         	1	3	1	animal_horse04.jpg   	animals  	0	horse     	20	horse04     	203	alive    	1	moves	1	natural 	1	n	0	0        	 	0.0	0	134.911832300015	135.011849600007	0.100017299992032
142034	100	204	stimuli/movArt/helicopter/ma_helicopter04.jpg    	1	3	1	ma_helicopter04.jpg  	movArt   	2	helicopter	19	helicopter04	193	not_alive	0	moves	1	artefact	0	n	0	0        	 	0.0	0	135.061839100032	135.161829999997	0.0999908999656327
142184	100	205	stimuli/plant/vine/plant_vine05.jpg              	1	3	1	plant_vine05.jpg     	plant    	6	vine      	36	vine05      	364	alive    	1	still	0	natural 	1	n	0	0        	 	0.0	0	135.211840400007	135.311853600026	0.100013200019021
142334	100	206	stimuli/nonmovArt/mug/nma_mug02.jpg              	1	3	1	nma_mug02.jpg        	nonmovArt	4	mug       	26	mug02       	261	not_alive	0	still	0	artefact	0	n	0	0        	 	0.0	0	135.361848500033	135.461840100004	0.0999915999709628
142484	100	207	stimuli/animals/eagle/animal_eagle06.jpg         	1	3	1	animal_eagle06.jpg   	animals  	0	eagle     	13	eagle06     	135	alive    	1	moves	1	natural 	1	n	0	0        	 	0.0	0	135.511850700015	135.611842399987	0.0999916999717243
142634	100	208	stimuli/plant/grass/plant_grass08.jpg            	1	3	1	plant_grass08.jpg    	plant    	6	grass     	17	grass08     	177	alive    	1	still	0	natural 	1	n	0	0        	 	0.0	0	135.661872600031	135.761873200012	0.100000599981286
142784	100	209	stimuli/animals/dog/animal_dog07.jpg             	1	3	1	animal_dog07.jpg     	animals  	0	dog       	11	dog07       	116	alive    	1	moves	1	natural 	1	n	0	0        	 	0.0	0	135.811854300031	135.911849900032	0.0999956000014208
142934	100	210	stimuli/movNat/waves/mn_waves07.jpg              	1	3	1	mn_waves07.jpg       	movNat   	3	waves     	38	waves07     	386	not_alive	0	moves	1	natural 	1	n	0	0        	 	0.0	0	135.961859900039	136.061853100022	0.099993199983146
143084	100	211	stimuli/nonmovArt/lock/nma_lock03.jpg            	1	3	1	nma_lock03.jpg       	nonmovArt	4	lock      	24	lock03      	242	not_alive	0	still	0	artefact	0	n	0	0        	 	0.0	0	136.111862600024	136.211857000017	0.0999943999922834
143234	100	212	stimuli/nonmovNat/rock/nmn_rock01.jpg            	1	3	1	nmn_rock01.jpg       	nonmovNat	5	rock      	30	rock01      	300	not_alive	0	still	0	natural 	1	n	0	0        	 	0.0	0	136.261869999988	136.361887800042	0.100017800054047
143384	100	213	stimuli/movNat/hotspring/mn_hotspring09.jpg      	1	3	1	mn_hotspring09.jpg   	movNat   	3	hotspring 	21	hotspring09 	218	not_alive	0	moves	1	natural 	1	n	0	0        	 	0.0	0	136.41187120002	136.511886199994	0.100014999974519
143534	100	214	stimuli/plant/vine/plant_vine03.jpg              	1	3	1	plant_vine03.jpg     	plant    	6	vine      	36	vine03      	362	alive    	1	still	0	natural 	1	n	0	0        	 	0.0	0	136.561895399995	136.661870000011	0.0999746000161394
143684	100	215	stimuli/plant/cactus/plant_cactus08.jpg          	1	3	1	plant_cactus08.jpg   	plant    	6	cactus    	4	cactus08    	47	alive    	1	still	0	natural 	1	n	0	0        	 	0.0	0	136.711897600035	136.811872599996	0.0999749999609776
143834	100	216	stimuli/animals2/whale/animal_whale01.jpg        	1	3	1	animal_whale01.jpg   	animals2 	1	whale     	39	whale01     	390	alive    	1	moves	1	natural 	1	n	0	0        	 	0.0	0	136.861892200017	136.961875999987	0.0999837999697775
143984	100	217	stimuli/plant/flower/plant_flower06.jpg          	1	3	1	plant_flower06.jpg   	plant    	6	flower    	16	flower06    	165	alive    	1	still	0	natural 	1	n	0	0        	 	0.0	0	137.011889000016	137.111890100001	0.100001099985093
144134	100	218	stimuli/animals/dolphin/animal_dolphin07.jpg     	1	3	1	animal_dolphin07.jpg 	animals  	0	dolphin   	12	dolphin07   	126	alive    	1	moves	1	natural 	1	n	0	0        	 	0.0	0	137.161892300006	137.261918400007	0.100026100000832
144284	100	219	stimuli/plant2/moss/plant_moss03.jpg             	1	3	1	plant_moss03.jpg     	plant2   	7	moss      	25	moss03      	252	alive    	1	still	0	natural 	1	n	0	0        	 	0.0	0	137.311895899998	137.411889799987	0.0999938999884762
144434	100	220	stimuli/movArt/bus/ma_bus10.jpg                  	1	3	1	ma_bus10.jpg         	movArt   	2	bus       	3	bus10       	39	not_alive	0	moves	1	artefact	0	n	0	0        	 	0.0	0	137.4619007	137.561895399995	0.0999946999945678
144585	100	221	stimuli/animals2/lemur/animal_lemur04.jpg        	1	3	1	animal_lemur04.jpg   	animals2 	1	lemur     	23	lemur04     	233	alive    	1	moves	1	natural 	1	n	1	0        	 	0.0	0	137.61193210003	137.711895500019	0.0999633999890648
144734	100	222	stimuli/animals/dolphin/animal_dolphin04.jpg     	1	3	1	animal_dolphin04.jpg 	animals  	0	dolphin   	12	dolphin04   	123	alive    	1	moves	1	natural 	1	n	0	0        	 	0.0	0	137.7619098	137.861912399996	0.100002599996515
144884	100	223	stimuli/animals/dog/animal_dog05.jpg             	1	3	1	animal_dog05.jpg     	animals  	0	dog       	11	dog05       	114	alive    	1	moves	1	natural 	1	n	0	1        	f	0.302322799980175	1	137.911912799987	138.011935900024	0.100023100036196
145035	100	224	stimuli/plant/grass/plant_grass09.jpg            	1	3	1	plant_grass09.jpg    	plant    	6	grass     	17	grass09     	178	alive    	1	still	0	natural 	1	n	0	0        	 	0.0	0	138.061945000023	138.16193870001	0.0999936999869533
145185	100	225	stimuli/plant/grass/plant_grass08.jpg            	1	3	1	plant_grass08.jpg    	plant    	6	grass     	17	grass08     	177	alive    	1	still	0	natural 	1	n	0	0        	 	0.0	0	138.211948600016	138.311945200025	0.0999966000090353
145335	100	226	stimuli/nonmovNat/shell/nmn_shell03.jpg          	1	3	1	nmn_shell03.jpg      	nonmovNat	5	shell     	32	shell03     	322	not_alive	0	still	0	natural 	1	n	1	0        	 	0.0	0	138.361967900011	138.461944899987	0.0999769999762066
145485	100	227	stimuli/animals2/bee/animal_bee09.jpg            	1	3	1	animal_bee09.jpg     	animals2 	1	bee       	0	bee09       	8	alive    	1	moves	1	natural 	1	n	0	0        	 	0.0	0	138.511956000002	138.611946900026	0.0999909000238404
145635	100	228	stimuli/movNat/hotspring/mn_hotspring10.jpg      	1	3	1	mn_hotspring10.jpg   	movNat   	3	hotspring 	21	hotspring10 	219	not_alive	0	moves	1	natural 	1	n	0	1        	f	0.391954899998382	1	138.661942300037	138.76193810004	0.0999958000029437
145785	100	229	stimuli/animals2/pigeon/animal_pigeon10.jpg      	1	3	1	animal_pigeon10.jpg  	animals2 	1	pigeon    	28	pigeon10    	289	alive    	1	moves	1	natural 	1	n	0	0        	 	0.0	0	138.811965500005	138.911958899989	0.0999933999846689
145935	100	230	stimuli/plant2/palmtree/plant_palmtree02.jpg     	1	3	1	plant_palmtree02.jpg 	plant2   	7	palmtree  	27	palmtree02  	271	alive    	1	still	0	natural 	1	n	0	0        	 	0.0	0	138.961971900018	139.061963399989	0.0999914999702014
146085	100	231	stimuli/nonmovNat/cliff/nmn_cliff02.jpg          	1	3	1	nmn_cliff02.jpg      	nonmovNat	5	cliff     	7	cliff02     	71	not_alive	0	still	0	natural 	1	n	0	0        	 	0.0	0	139.111991300015	139.211963000009	0.0999716999940574
146235	100	232	stimuli/movNat/fire/mn_fire09.jpg                	1	3	1	mn_fire09.jpg        	movNat   	3	fire      	15	fire09      	158	not_alive	0	moves	1	natural 	1	n	0	0        	 	0.0	0	139.261975600035	139.361970600032	0.0999949999968521
146385	100	233	stimuli/nonmovNat/rock/nmn_rock03.jpg            	1	3	1	nmn_rock03.jpg       	nonmovNat	5	rock      	30	rock03      	302	not_alive	0	still	0	natural 	1	n	0	0        	 	0.0	0	139.411984300008	139.511971100001	0.0999867999926209
146535	100	234	stimuli/animals/horse/animal_horse06.jpg         	1	3	1	animal_horse06.jpg   	animals  	0	horse     	20	horse06     	205	alive    	1	moves	1	natural 	1	n	0	0        	 	0.0	0	139.561985100037	139.661963100021	0.0999779999838211
146685	100	235	stimuli/nonmovArt/bench/nma_bench04.jpg          	1	3	1	nma_bench04.jpg      	nonmovArt	4	bench     	1	bench04     	13	not_alive	0	still	0	artefact	0	n	0	0        	 	0.0	0	139.711986600014	139.811965200002	0.0999785999883898
146835	100	236	stimuli/nonmovArt/bench/nma_bench10.jpg          	1	3	1	nma_bench10.jpg      	nonmovArt	4	bench     	1	bench10     	19	not_alive	0	still	0	artefact	0	n	0	0        	 	0.0	0	139.861991800019	139.962008200004	0.100016399985179
146985	100	237	stimuli/animals2/tiger/animal_tiger09.jpg        	1	3	1	animal_tiger09.jpg   	animals2 	1	tiger     	33	tiger09     	338	alive    	1	moves	1	natural 	1	n	0	0        	 	0.0	0	140.012001900002	140.111986900039	0.0999850000371225
147135	100	238	stimuli/nonmovNat/rock/nmn_rock04.jpg            	1	3	1	nmn_rock04.jpg       	nonmovNat	5	rock      	30	rock04      	303	not_alive	0	still	0	natural 	1	n	0	0        	 	0.0	0	140.162022300006	140.261992199987	0.0999698999803513
147285	100	239	stimuli/nonmovNat/cliff/nmn_cliff04.jpg          	1	3	1	nmn_cliff04.jpg      	nonmovNat	5	cliff     	7	cliff04     	73	not_alive	0	still	0	natural 	1	n	0	0        	 	0.0	0	140.312002199993	140.412000700017	0.0999985000235029
150818	100	240	stimuli/animals/eagle/animal_eagle03.jpg         	1	4	1	animal_eagle03.jpg   	animals  	0	eagle     	13	eagle03     	132	alive    	1	moves	1	natural 	1	n	0	0        	 	0.0	0	143.845411100017	143.945401600038	0.0999905000207946
150968	100	241	stimuli/movNat/hotspring/mn_hotspring08.jpg      	1	4	1	mn_hotspring08.jpg   	movNat   	3	hotspring 	21	hotspring08 	217	not_alive	0	moves	1	natural 	1	n	0	0        	 	0.0	0	143.995413900004	144.095408199995	0.099994299991522
151118	100	242	stimuli/animals/dog/animal_dog04.jpg             	1	4	1	animal_dog04.jpg     	animals  	0	dog       	11	dog04       	113	alive    	1	moves	1	natural 	1	n	0	0        	 	0.0	0	144.14541560004	144.245409200026	0.0999935999861918
151268	100	243	stimuli/movArt/bus/ma_bus04.jpg                  	1	4	1	ma_bus04.jpg         	movArt   	2	bus       	3	bus04       	33	not_alive	0	moves	1	artefact	0	n	0	0        	 	0.0	0	144.295422199997	144.395423699985	0.100001499988139
151418	100	244	stimuli/animals/dog/animal_dog04.jpg             	1	4	1	animal_dog04.jpg     	animals  	0	dog       	11	dog04       	113	alive    	1	moves	1	natural 	1	n	0	0        	 	0.0	0	144.445423900033	144.545431000006	0.100007099972572
151568	100	245	stimuli/plant/flower/plant_flower06.jpg          	1	4	1	plant_flower06.jpg   	plant    	6	flower    	16	flower06    	165	alive    	1	still	0	natural 	1	n	0	0        	 	0.0	0	144.595426600019	144.695420600008	0.0999939999892376
151718	100	246	stimuli/animals2/whale/animal_whale02.jpg        	1	4	1	animal_whale02.jpg   	animals2 	1	whale     	39	whale02     	391	alive    	1	moves	1	natural 	1	n	0	0        	 	0.0	0	144.745431200019	144.845423299994	0.0999920999747701
151868	100	247	stimuli/plant2/lemontree/plant_lemontree09.jpg   	1	4	1	plant_lemontree09.jpg	plant2   	7	lemontree 	22	lemontree09 	228	alive    	1	still	0	natural 	1	n	0	0        	 	0.0	0	144.895452800032	144.995426600042	0.0999738000100478
152018	100	248	stimuli/animals2/bee/animal_bee06.jpg            	1	4	1	animal_bee06.jpg     	animals2 	1	bee       	0	bee06       	5	alive    	1	moves	1	natural 	1	n	0	0        	 	0.0	0	145.045440200018	145.145437800034	0.0999976000166498
152168	100	249	stimuli/nonmovArt/bench/nma_bench10.jpg          	1	4	1	nma_bench10.jpg      	nonmovArt	4	bench     	1	bench10     	19	not_alive	0	still	0	artefact	0	n	0	0        	 	0.0	0	145.195441999997	145.295443000039	0.100001000042539
152318	100	250	stimuli/movNat/waterfall/mn_waterfall05.jpg      	1	4	1	mn_waterfall05.jpg   	movNat   	3	waterfall 	37	waterfall05 	374	not_alive	0	moves	1	natural 	1	n	0	0        	 	0.0	0	145.345449900022	145.445441399992	0.0999914999702014
152468	100	251	stimuli/animals/dolphin/animal_dolphin05.jpg     	1	4	1	animal_dolphin05.jpg 	animals  	0	dolphin   	12	dolphin05   	124	alive    	1	moves	1	natural 	1	n	0	0        	 	0.0	0	145.495464200038	145.595447200001	0.0999829999636859
152618	100	252	stimuli/plant2/clover/plant_clover06.jpg         	1	4	1	plant_clover06.jpg   	plant2   	7	clover    	9	clover06    	95	alive    	1	still	0	natural 	1	n	0	0        	 	0.0	0	145.645483900036	145.745449100039	0.0999652000027709
152768	100	253	stimuli/movNat/hotspring/mn_hotspring10.jpg      	1	4	1	mn_hotspring10.jpg   	movNat   	3	hotspring 	21	hotspring10 	219	not_alive	0	moves	1	natural 	1	n	1	0        	 	0.0	0	145.795458200038	145.895451700024	0.0999934999854304
152918	100	254	stimuli/plant/flower/plant_flower06.jpg          	1	4	1	plant_flower06.jpg   	plant    	6	flower    	16	flower06    	165	alive    	1	still	0	natural 	1	n	0	0        	 	0.0	0	145.9454654	146.045456200023	0.0999908000230789
153068	100	255	stimuli/nonmovArt/mug/nma_mug07.jpg              	1	4	1	nma_mug07.jpg        	nonmovArt	4	mug       	26	mug07       	266	not_alive	0	still	0	artefact	0	n	0	1        	f	0.391998399980366	1	146.095467900042	146.195460800023	0.0999928999808617
153218	100	256	stimuli/movNat/waves/mn_waves02.jpg              	1	4	1	mn_waves02.jpg       	movNat   	3	waves     	38	waves02     	381	not_alive	0	moves	1	natural 	1	n	0	0        	 	0.0	0	146.245491400012	146.345465300023	0.0999739000108093
153368	100	257	stimuli/movArt/helicopter/ma_helicopter03.jpg    	1	4	1	ma_helicopter03.jpg  	movArt   	2	helicopter	19	helicopter03	192	not_alive	0	moves	1	artefact	0	n	0	0        	 	0.0	0	146.395489600021	146.495468900015	0.0999792999937199
153518	100	258	stimuli/nonmovArt/lock/nma_lock01.jpg            	1	4	1	nma_lock01.jpg       	nonmovArt	4	lock      	24	lock01      	240	not_alive	0	still	0	artefact	0	n	0	0        	 	0.0	0	146.545480400033	146.645473200013	0.0999927999801002
153668	100	259	stimuli/animals/horse/animal_horse04.jpg         	1	4	1	animal_horse04.jpg   	animals  	0	horse     	20	horse04     	203	alive    	1	moves	1	natural 	1	n	0	0        	 	0.0	0	146.695482400013	146.795473000035	0.099990600021556
153818	100	260	stimuli/animals/cat/animal_cat07.jpg             	1	4	1	animal_cat07.jpg     	animals  	0	cat       	6	cat07       	66	alive    	1	moves	1	natural 	1	n	0	0        	 	0.0	0	146.845486800012	146.945479499991	0.0999926999793388
153968	100	261	stimuli/nonmovNat/cliff/nmn_cliff05.jpg          	1	4	1	nmn_cliff05.jpg      	nonmovNat	5	cliff     	7	cliff05     	74	not_alive	0	still	0	natural 	1	n	0	0        	 	0.0	0	146.995501800033	147.095484599995	0.099982799962163
154118	100	262	stimuli/animals2/bee/animal_bee04.jpg            	1	4	1	animal_bee04.jpg     	animals2 	1	bee       	0	bee04       	3	alive    	1	moves	1	natural 	1	n	0	0        	 	0.0	0	147.145500499988	147.245490400004	0.0999899000162259
154268	100	263	stimuli/movArt/boat/ma_boat03.jpg                	1	4	1	ma_boat03.jpg        	movArt   	2	boat      	2	boat03      	22	not_alive	0	moves	1	artefact	0	n	0	0        	 	0.0	0	147.295499600004	147.395488800015	0.0999892000108957
154418	100	264	stimuli/nonmovNat/rock/nmn_rock05.jpg            	1	4	1	nmn_rock05.jpg       	nonmovNat	5	rock      	30	rock05      	304	not_alive	0	still	0	natural 	1	n	0	0        	 	0.0	0	147.445503099996	147.545488800039	0.0999857000424527
154568	100	265	stimuli/nonmovNat/sand/nmn_sand09.jpg            	1	4	1	nmn_sand09.jpg       	nonmovNat	5	sand      	31	sand09      	318	not_alive	0	still	0	natural 	1	n	0	0        	 	0.0	0	147.595496500027	147.695493100036	0.0999966000090353
154718	100	266	stimuli/animals2/pigeon/animal_pigeon08.jpg      	1	4	1	animal_pigeon08.jpg  	animals2 	1	pigeon    	28	pigeon08    	287	alive    	1	moves	1	natural 	1	n	0	0        	 	0.0	0	147.745524500031	147.845497700037	0.0999732000054792
154868	100	267	stimuli/plant2/fern/plant_fern02.jpg             	1	4	1	plant_fern02.jpg     	plant2   	7	fern      	14	fern02      	141	alive    	1	still	0	natural 	1	n	0	0        	 	0.0	0	147.895511500014	147.995500300021	0.0999888000078499
155018	100	268	stimuli/plant/cactus/plant_cactus06.jpg          	1	4	1	plant_cactus06.jpg   	plant    	6	cactus    	4	cactus06    	45	alive    	1	still	0	natural 	1	n	0	0        	 	0.0	0	148.045528199989	148.145505200024	0.0999770000344142
155168	100	269	stimuli/plant/grass/plant_grass02.jpg            	1	4	1	plant_grass02.jpg    	plant    	6	grass     	17	grass02     	171	alive    	1	still	0	natural 	1	n	0	0        	 	0.0	0	148.195514600025	148.295510700031	0.0999961000052281
155318	100	270	stimuli/movArt/helicopter/ma_helicopter03.jpg    	1	4	1	ma_helicopter03.jpg  	movArt   	2	helicopter	19	helicopter03	192	not_alive	0	moves	1	artefact	0	n	0	0        	 	0.0	0	148.345521200041	148.445513100014	0.0999918999732472
155468	100	271	stimuli/plant/tree/plant_tree09.jpg              	1	4	1	plant_tree09.jpg     	plant    	6	tree      	35	tree09      	358	alive    	1	still	0	natural 	1	n	0	0        	 	0.0	0	148.495525400038	148.595525700017	0.100000299979001
155618	100	272	stimuli/nonmovNat/shell/nmn_shell02.jpg          	1	4	1	nmn_shell02.jpg      	nonmovNat	5	shell     	32	shell02     	321	not_alive	0	still	0	natural 	1	n	0	0        	 	0.0	0	148.645543800027	148.745522700017	0.0999788999906741
155768	100	273	stimuli/nonmovArt/headphones/nma_headphones04.jpg	1	4	1	nma_headphones04.jpg 	nonmovArt	4	headphones	18	headphones04	183	not_alive	0	still	0	artefact	0	n	0	0        	 	0.0	0	148.795529199997	148.895524599997	0.0999953999998979
155918	100	274	stimuli/animals/horse/animal_horse06.jpg         	1	4	1	animal_horse06.jpg   	animals  	0	horse     	20	horse06     	205	alive    	1	moves	1	natural 	1	n	0	0        	 	0.0	0	148.945551700017	149.0455296	0.0999778999830596
156068	100	275	stimuli/nonmovNat/crystal/nmn_crystal05.jpg      	1	4	1	nmn_crystal05.jpg    	nonmovNat	5	crystal   	10	crystal05   	104	not_alive	0	still	0	natural 	1	n	0	0        	 	0.0	0	149.095540500013	149.195531500038	0.0999910000246018
156218	100	276	stimuli/plant/cactus/plant_cactus08.jpg          	1	4	1	plant_cactus08.jpg   	plant    	6	cactus    	4	cactus08    	47	alive    	1	still	0	natural 	1	n	0	0        	 	0.0	0	149.245545900019	149.345565000025	0.100019100005738
156368	100	277	stimuli/animals2/tiger/animal_tiger07.jpg        	1	4	1	animal_tiger07.jpg   	animals2 	1	tiger     	33	tiger07     	336	alive    	1	moves	1	natural 	1	n	0	0        	 	0.0	0	149.395545900043	149.49554199999	0.0999960999470204
156518	100	278	stimuli/movNat/waterfall/mn_waterfall04.jpg      	1	4	1	mn_waterfall04.jpg   	movNat   	3	waterfall 	37	waterfall04 	373	not_alive	0	moves	1	natural 	1	n	0	0        	 	0.0	0	149.545553100004	149.645545900043	0.0999928000383079
156668	100	279	stimuli/movNat/river/mn_river05.jpg              	1	4	1	mn_river05.jpg       	movNat   	3	river     	29	river05     	294	not_alive	0	moves	1	natural 	1	n	0	0        	 	0.0	0	149.695556299994	149.795550499985	0.0999941999907605
156818	100	280	stimuli/animals2/lemur/animal_lemur04.jpg        	1	4	1	animal_lemur04.jpg   	animals2 	1	lemur     	23	lemur04     	233	alive    	1	moves	1	natural 	1	n	0	0        	 	0.0	0	149.845559899986	149.945568100025	0.100008200039156
156968	100	281	stimuli/plant2/fern/plant_fern02.jpg             	1	4	1	plant_fern02.jpg     	plant2   	7	fern      	14	fern02      	141	alive    	1	still	0	natural 	1	n	0	0        	 	0.0	0	149.995561000018	150.095595200022	0.100034200004302
157118	100	282	stimuli/movNat/fire/mn_fire04.jpg                	1	4	1	mn_fire04.jpg        	movNat   	3	fire      	15	fire04      	153	not_alive	0	moves	1	natural 	1	n	1	0        	 	0.0	0	150.145569199987	150.245562700031	0.099993500043638
157268	100	283	stimuli/nonmovArt/clothespeg/nma_clothespeg08.jpg	1	4	1	nma_clothespeg08.jpg 	nonmovArt	4	clothespeg	8	clothespeg08	87	not_alive	0	still	0	artefact	0	n	0	0        	 	0.0	0	150.29557419999	150.395563800004	0.0999896000139415
157418	100	284	stimuli/animals2/pigeon/animal_pigeon05.jpg      	1	4	1	animal_pigeon05.jpg  	animals2 	1	pigeon    	28	pigeon05    	284	alive    	1	moves	1	natural 	1	n	1	1        	f	0.0919968000380322	1	150.445595099998	150.545572000032	0.0999769000336528
157568	100	285	stimuli/plant2/fern/plant_fern10.jpg             	1	4	1	plant_fern10.jpg     	plant2   	7	fern      	14	fern10      	149	alive    	1	still	0	natural 	1	n	0	0        	 	0.0	0	150.595577300002	150.695585100038	0.10000780003611
157718	100	286	stimuli/animals/dolphin/animal_dolphin01.jpg     	1	4	1	animal_dolphin01.jpg 	animals  	0	dolphin   	12	dolphin01   	120	alive    	1	moves	1	natural 	1	n	0	1        	f	0.292151100002229	1	150.745585000026	150.845591999998	0.100006999971811
157868	100	287	stimuli/movArt/train/ma_train02.jpg              	1	4	1	ma_train02.jpg       	movArt   	2	train     	34	train02     	341	not_alive	0	moves	1	artefact	0	n	0	0        	 	0.0	0	150.895589600026	150.995577000023	0.0999873999971896
158018	100	288	stimuli/animals2/bee/animal_bee09.jpg            	1	4	1	animal_bee09.jpg     	animals2 	1	bee       	0	bee09       	8	alive    	1	moves	1	natural 	1	n	0	0        	 	0.0	0	151.045621700003	151.145586099999	0.0999643999966793
158168	100	289	stimuli/nonmovArt/bench/nma_bench07.jpg          	1	4	1	nma_bench07.jpg      	nonmovArt	4	bench     	1	bench07     	16	not_alive	0	still	0	artefact	0	n	0	0        	 	0.0	0	151.195634600008	151.295588500041	0.0999539000331424
158318	100	290	stimuli/plant/cactus/plant_cactus06.jpg          	1	4	1	plant_cactus06.jpg   	plant    	6	cactus    	4	cactus06    	45	alive    	1	still	0	natural 	1	n	0	0        	 	0.0	0	151.345599599998	151.445592100034	0.0999925000360236
158468	100	291	stimuli/plant/vine/plant_vine09.jpg              	1	4	1	plant_vine09.jpg     	plant    	6	vine      	36	vine09      	368	alive    	1	still	0	natural 	1	n	0	0        	 	0.0	0	151.495601900038	151.5955923	0.0999903999618255
158618	100	292	stimuli/nonmovArt/headphones/nma_headphones06.jpg	1	4	1	nma_headphones06.jpg 	nonmovArt	4	headphones	18	headphones06	185	not_alive	0	still	0	artefact	0	n	0	0        	 	0.0	0	151.645608699997	151.745600900031	0.0999922000337392
158768	100	293	stimuli/plant/tree/plant_tree09.jpg              	1	4	1	plant_tree09.jpg     	plant    	6	tree      	35	tree09      	358	alive    	1	still	0	natural 	1	n	0	0        	 	0.0	0	151.795624300023	151.895604300022	0.09997999999905
158918	100	294	stimuli/movNat/waterfall/mn_waterfall01.jpg      	1	4	1	mn_waterfall01.jpg   	movNat   	3	waterfall 	37	waterfall01 	370	not_alive	0	moves	1	natural 	1	n	1	0        	 	0.0	0	151.945642100007	152.045609500026	0.0999674000195228
159068	100	295	stimuli/plant2/moss/plant_moss06.jpg             	1	4	1	plant_moss06.jpg     	plant2   	7	moss      	25	moss06      	255	alive    	1	still	0	natural 	1	n	0	0        	 	0.0	0	152.095619700034	152.195610199997	0.0999904999625869
159218	100	296	stimuli/nonmovArt/mug/nma_mug05.jpg              	1	4	1	nma_mug05.jpg        	nonmovArt	4	mug       	26	mug05       	264	not_alive	0	still	0	artefact	0	n	0	1        	f	0.391980800020974	1	152.245623300027	152.345619900036	0.0999966000090353
159368	100	297	stimuli/movNat/waves/mn_waves01.jpg              	1	4	1	mn_waves01.jpg       	movNat   	3	waves     	38	waves01     	380	not_alive	0	moves	1	natural 	1	n	0	0        	 	0.0	0	152.395627200021	152.495643000002	0.100015799980611
159518	100	298	stimuli/movArt/helicopter/ma_helicopter03.jpg    	1	4	1	ma_helicopter03.jpg  	movArt   	2	helicopter	19	helicopter03	192	not_alive	0	moves	1	artefact	0	n	0	0        	 	0.0	0	152.545652100001	152.645644200034	0.0999921000329778
159668	100	299	stimuli/movArt/bus/ma_bus02.jpg                  	1	4	1	ma_bus02.jpg         	movArt   	2	bus       	3	bus02       	31	not_alive	0	moves	1	artefact	0	n	0	0        	 	0.0	0	152.695683900034	152.795646000013	0.0999620999791659
159818	100	300	stimuli/plant2/lemontree/plant_lemontree03.jpg   	1	4	1	plant_lemontree03.jpg	plant2   	7	lemontree 	22	lemontree03 	222	alive    	1	still	0	natural 	1	n	0	0        	 	0.0	0	152.845657500031	152.94565519999	0.0999976999592036
159968	100	301	stimuli/nonmovNat/rock/nmn_rock09.jpg            	1	4	1	nmn_rock09.jpg       	nonmovNat	5	rock      	30	rock09      	308	not_alive	0	still	0	natural 	1	n	0	0        	 	0.0	0	152.99566190003	153.095664600027	0.100002699997276
160118	100	302	stimuli/movArt/car/ma_car09.jpg                  	1	4	1	ma_car09.jpg         	movArt   	2	car       	5	car09       	58	not_alive	0	moves	1	artefact	0	n	0	0        	 	0.0	0	153.145666000026	153.245660800021	0.0999947999953292
160268	100	303	stimuli/plant/flower/plant_flower03.jpg          	1	4	1	plant_flower03.jpg   	plant    	6	flower    	16	flower03    	162	alive    	1	still	0	natural 	1	n	0	0        	 	0.0	0	153.295672700042	153.39566899999	0.0999962999485433
160418	100	304	stimuli/animals2/whale/animal_whale03.jpg        	1	4	1	animal_whale03.jpg   	animals2 	1	whale     	39	whale03     	392	alive    	1	moves	1	natural 	1	n	0	0        	 	0.0	0	153.445675300027	153.545666999999	0.0999916999717243
160568	100	305	stimuli/nonmovArt/headphones/nma_headphones07.jpg	1	4	1	nma_headphones07.jpg 	nonmovArt	4	headphones	18	headphones07	186	not_alive	0	still	0	artefact	0	n	0	0        	 	0.0	0	153.595680400031	153.695670799993	0.0999903999618255
160718	100	306	stimuli/nonmovArt/lock/nma_lock08.jpg            	1	4	1	nma_lock08.jpg       	nonmovArt	4	lock      	24	lock08      	247	not_alive	0	still	0	artefact	0	n	0	0        	 	0.0	0	153.7456809	153.845686000015	0.100005100015551
160868	100	307	stimuli/plant/vine/plant_vine03.jpg              	1	4	1	plant_vine03.jpg     	plant    	6	vine      	36	vine03      	362	alive    	1	still	0	natural 	1	n	0	0        	 	0.0	0	153.895685199997	153.995679199987	0.0999939999892376
161018	100	308	stimuli/movNat/hotspring/mn_hotspring01.jpg      	1	4	1	mn_hotspring01.jpg   	movNat   	3	hotspring 	21	hotspring01 	210	not_alive	0	moves	1	natural 	1	n	0	0        	 	0.0	0	154.045689499995	154.145683400042	0.0999939000466838
161168	100	309	stimuli/plant2/palmtree/plant_palmtree05.jpg     	1	4	1	plant_palmtree05.jpg 	plant2   	7	palmtree  	27	palmtree05  	274	alive    	1	still	0	natural 	1	n	0	0        	 	0.0	0	154.195696300012	154.295689999999	0.0999936999869533
161318	100	310	stimuli/animals2/lemur/animal_lemur01.jpg        	1	4	1	animal_lemur01.jpg   	animals2 	1	lemur     	23	lemur01     	230	alive    	1	moves	1	natural 	1	n	0	0        	 	0.0	0	154.345710700029	154.445692899986	0.0999821999575943
161468	100	311	stimuli/animals/cat/animal_cat04.jpg             	1	4	1	animal_cat04.jpg     	animals  	0	cat       	6	cat04       	63	alive    	1	moves	1	natural 	1	n	0	0        	 	0.0	0	154.495699700026	154.59569799999	0.0999982999637723
161618	100	312	stimuli/nonmovArt/bench/nma_bench06.jpg          	1	4	1	nma_bench06.jpg      	nonmovArt	4	bench     	1	bench06     	15	not_alive	0	still	0	artefact	0	n	0	0        	 	0.0	0	154.645710900018	154.745700900035	0.0999900000169873
161768	100	313	stimuli/animals/dolphin/animal_dolphin01.jpg     	1	4	1	animal_dolphin01.jpg 	animals  	0	dolphin   	12	dolphin01   	120	alive    	1	moves	1	natural 	1	n	0	0        	 	0.0	0	154.79570810002	154.895707799995	0.0999996999744326
161918	100	314	stimuli/nonmovArt/mug/nma_mug01.jpg              	1	4	1	nma_mug01.jpg        	nonmovArt	4	mug       	26	mug01       	260	not_alive	0	still	0	artefact	0	n	0	0        	 	0.0	0	154.94571639999	155.045708500023	0.0999921000329778
162068	100	315	stimuli/movNat/fire/mn_fire07.jpg                	1	4	1	mn_fire07.jpg        	movNat   	3	fire      	15	fire07      	156	not_alive	0	moves	1	natural 	1	n	0	0        	 	0.0	0	155.09571980004	155.195724199992	0.100004399952013
162218	100	316	stimuli/animals2/whale/animal_whale06.jpg        	1	4	1	animal_whale06.jpg   	animals2 	1	whale     	39	whale06     	395	alive    	1	moves	1	natural 	1	n	0	0        	 	0.0	0	155.245725399989	155.345716700016	0.0999913000268862
162368	100	317	stimuli/animals2/tiger/animal_tiger03.jpg        	1	4	1	animal_tiger03.jpg   	animals2 	1	tiger     	33	tiger03     	332	alive    	1	moves	1	natural 	1	n	0	0        	 	0.0	0	155.395734600024	155.49572810001	0.0999934999854304
162518	100	318	stimuli/movNat/waves/mn_waves02.jpg              	1	4	1	mn_waves02.jpg       	movNat   	3	waves     	38	waves02     	381	not_alive	0	moves	1	natural 	1	n	0	0        	 	0.0	0	155.545740300033	155.645715699997	0.0999753999640234
162668	100	319	stimuli/movArt/boat/ma_boat10.jpg                	1	4	1	ma_boat10.jpg        	movArt   	2	boat      	2	boat10      	29	not_alive	0	moves	1	artefact	0	n	0	0        	 	0.0	0	155.695735500019	155.795736700005	0.100001199985854
169535	100	320	stimuli/plant2/palmtree/plant_palmtree07.jpg     	1	5	1	plant_palmtree07.jpg 	plant2   	7	palmtree  	27	palmtree07  	276	alive    	1	still	0	natural 	1	n	0	0        	 	0.0	0	162.562573000032	162.662562100042	0.0999891000101343
169685	100	321	stimuli/plant2/moss/plant_moss02.jpg             	1	5	1	plant_moss02.jpg     	plant2   	7	moss      	25	moss02      	251	alive    	1	still	0	natural 	1	n	0	0        	 	0.0	0	162.712571899989	162.812565900036	0.0999940000474453
169835	100	322	stimuli/plant/vine/plant_vine01.jpg              	1	5	1	plant_vine01.jpg     	plant    	6	vine      	36	vine01      	360	alive    	1	still	0	natural 	1	n	0	0        	 	0.0	0	162.862576899992	162.962578500039	0.100001600047108
169985	100	323	stimuli/nonmovArt/clothespeg/nma_clothespeg09.jpg	1	5	1	nma_clothespeg09.jpg 	nonmovArt	4	clothespeg	8	clothespeg09	88	not_alive	0	still	0	artefact	0	n	0	0        	 	0.0	0	163.012593700027	163.112586100004	0.0999923999770544
170135	100	324	stimuli/movArt/train/ma_train08.jpg              	1	5	1	ma_train08.jpg       	movArt   	2	train     	34	train08     	347	not_alive	0	moves	1	artefact	0	n	0	0        	 	0.0	0	163.162585000042	163.26257760002	0.0999925999785774
170285	100	325	stimuli/nonmovNat/crystal/nmn_crystal05.jpg      	1	5	1	nmn_crystal05.jpg    	nonmovNat	5	crystal   	10	crystal05   	104	not_alive	0	still	0	natural 	1	n	0	0        	 	0.0	0	163.312589600042	163.412582700024	0.0999930999823846
170435	100	326	stimuli/nonmovArt/clothespeg/nma_clothespeg06.jpg	1	5	1	nma_clothespeg06.jpg 	nonmovArt	4	clothespeg	8	clothespeg06	85	not_alive	0	still	0	artefact	0	n	0	0        	 	0.0	0	163.462591400021	163.562599199999	0.100007799977902
170585	100	327	stimuli/movArt/train/ma_train06.jpg              	1	5	1	ma_train06.jpg       	movArt   	2	train     	34	train06     	345	not_alive	0	moves	1	artefact	0	n	0	0        	 	0.0	0	163.612598200038	163.712591400021	0.099993199983146
170735	100	328	stimuli/plant2/clover/plant_clover02.jpg         	1	5	1	plant_clover02.jpg   	plant2   	7	clover    	9	clover02    	91	alive    	1	still	0	natural 	1	n	0	0        	 	0.0	0	163.762600200018	163.862608900003	0.100008699984755
170885	100	329	stimuli/movArt/car/ma_car09.jpg                  	1	5	1	ma_car09.jpg         	movArt   	2	car       	5	car09       	58	not_alive	0	moves	1	artefact	0	n	0	0        	 	0.0	0	163.912603200006	164.012595999986	0.0999927999801002
171035	100	330	stimuli/movNat/river/mn_river08.jpg              	1	5	1	mn_river08.jpg       	movNat   	3	river     	29	river08     	297	not_alive	0	moves	1	natural 	1	n	0	0        	 	0.0	0	164.062607500004	164.16260380001	0.099996300006751
171185	100	331	stimuli/animals/cat/animal_cat01.jpg             	1	5	1	animal_cat01.jpg     	animals  	0	cat       	6	cat01       	60	alive    	1	moves	1	natural 	1	n	0	0        	 	0.0	0	164.212624600041	164.312606599997	0.0999819999560714
171335	100	332	stimuli/animals/horse/animal_horse01.jpg         	1	5	1	animal_horse01.jpg   	animals  	0	horse     	20	horse01     	200	alive    	1	moves	1	natural 	1	n	0	0        	 	0.0	0	164.362617700011	164.462608800037	0.0999911000253633
171485	100	333	stimuli/plant2/clover/plant_clover03.jpg         	1	5	1	plant_clover03.jpg   	plant2   	7	clover    	9	clover03    	92	alive    	1	still	0	natural 	1	n	0	0        	 	0.0	0	164.512621000002	164.612614299986	0.0999932999839075
171635	100	334	stimuli/animals/eagle/animal_eagle10.jpg         	1	5	1	animal_eagle10.jpg   	animals  	0	eagle     	13	eagle10     	139	alive    	1	moves	1	natural 	1	n	0	0        	 	0.0	0	164.662624199991	164.762616800028	0.099992600036785
171785	100	335	stimuli/animals2/lemur/animal_lemur07.jpg        	1	5	1	animal_lemur07.jpg   	animals2 	1	lemur     	23	lemur07     	236	alive    	1	moves	1	natural 	1	n	0	0        	 	0.0	0	164.812625500024	164.912633100001	0.100007599976379
171935	100	336	stimuli/movArt/bus/ma_bus09.jpg                  	1	5	1	ma_bus09.jpg         	movArt   	2	bus       	3	bus09       	38	not_alive	0	moves	1	artefact	0	n	0	0        	 	0.0	0	164.962633899995	165.062624100014	0.0999902000185102
172085	100	337	stimuli/nonmovNat/shell/nmn_shell03.jpg          	1	5	1	nmn_shell03.jpg      	nonmovNat	5	shell     	32	shell03     	322	not_alive	0	still	0	natural 	1	n	0	0        	 	0.0	0	165.112636100035	165.212629100017	0.0999929999816231
172235	100	338	stimuli/animals/eagle/animal_eagle09.jpg         	1	5	1	animal_eagle09.jpg   	animals  	0	eagle     	13	eagle09     	138	alive    	1	moves	1	natural 	1	n	0	0        	 	0.0	0	165.262638100015	165.362633300014	0.099995199998375
172385	100	339	stimuli/nonmovNat/sand/nmn_sand05.jpg            	1	5	1	nmn_sand05.jpg       	nonmovNat	5	sand      	31	sand05      	314	not_alive	0	still	0	natural 	1	n	0	0        	 	0.0	0	165.412643900025	165.512637100008	0.099993199983146
172535	100	340	stimuli/plant/tree/plant_tree08.jpg              	1	5	1	plant_tree08.jpg     	plant    	6	tree      	35	tree08      	357	alive    	1	still	0	natural 	1	n	0	0        	 	0.0	0	165.562646900013	165.662644100026	0.099997200013604
172685	100	341	stimuli/animals2/tiger/animal_tiger03.jpg        	1	5	1	animal_tiger03.jpg   	animals2 	1	tiger     	33	tiger03     	332	alive    	1	moves	1	natural 	1	n	0	0        	 	0.0	0	165.712652300019	165.812656300026	0.100004000007175
172835	100	342	stimuli/plant2/palmtree/plant_palmtree04.jpg     	1	5	1	plant_palmtree04.jpg 	plant2   	7	palmtree  	27	palmtree04  	273	alive    	1	still	0	natural 	1	n	0	0        	 	0.0	0	165.862669499998	165.962648099987	0.0999785999883898
172985	100	343	stimuli/nonmovNat/cliff/nmn_cliff08.jpg          	1	5	1	nmn_cliff08.jpg      	nonmovNat	5	cliff     	7	cliff08     	77	not_alive	0	still	0	natural 	1	n	0	0        	 	0.0	0	166.012658499996	166.112653399992	0.0999948999960907
173135	100	344	stimuli/animals2/pigeon/animal_pigeon07.jpg      	1	5	1	animal_pigeon07.jpg  	animals2 	1	pigeon    	28	pigeon07    	286	alive    	1	moves	1	natural 	1	n	0	0        	 	0.0	0	166.162677299988	166.262658499996	0.0999812000081874
173285	100	345	stimuli/plant2/lemontree/plant_lemontree02.jpg   	1	5	1	plant_lemontree02.jpg	plant2   	7	lemontree 	22	lemontree02 	221	alive    	1	still	0	natural 	1	n	0	0        	 	0.0	0	166.312671000022	166.41265990003	0.0999889000086114
173435	100	346	stimuli/plant/grass/plant_grass04.jpg            	1	5	1	plant_grass04.jpg    	plant    	6	grass     	17	grass04     	173	alive    	1	still	0	natural 	1	n	0	0        	 	0.0	0	166.462672399997	166.562664400029	0.0999920000322163
173585	100	347	stimuli/movNat/fire/mn_fire02.jpg                	1	5	1	mn_fire02.jpg        	movNat   	3	fire      	15	fire02      	151	not_alive	0	moves	1	natural 	1	n	0	0        	 	0.0	0	166.612675100041	166.71266900003	0.0999938999884762
173735	100	348	stimuli/nonmovNat/sand/nmn_sand03.jpg            	1	5	1	nmn_sand03.jpg       	nonmovNat	5	sand      	31	sand03      	312	not_alive	0	still	0	natural 	1	n	0	0        	 	0.0	0	166.762680699991	166.862671700015	0.0999910000246018
173885	100	349	stimuli/movArt/boat/ma_boat05.jpg                	1	5	1	ma_boat05.jpg        	movArt   	2	boat      	2	boat05      	24	not_alive	0	moves	1	artefact	0	n	0	0        	 	0.0	0	166.912682100025	167.012676800019	0.0999946999945678
174035	100	350	stimuli/plant2/moss/plant_moss10.jpg             	1	5	1	plant_moss10.jpg     	plant2   	7	moss      	25	moss10      	259	alive    	1	still	0	natural 	1	n	0	0        	 	0.0	0	167.062688000035	167.162698800035	0.100010800000746
174185	100	351	stimuli/movNat/river/mn_river02.jpg              	1	5	1	mn_river02.jpg       	movNat   	3	river     	29	river02     	291	not_alive	0	moves	1	natural 	1	n	0	0        	 	0.0	0	167.212692100031	167.312685600016	0.0999934999854304
174335	100	352	stimuli/nonmovNat/shell/nmn_shell10.jpg          	1	5	1	nmn_shell10.jpg      	nonmovNat	5	shell     	32	shell10     	329	not_alive	0	still	0	natural 	1	n	0	0        	 	0.0	0	167.362694900017	167.462692300032	0.0999974000151269
174485	100	353	stimuli/nonmovNat/cliff/nmn_cliff07.jpg          	1	5	1	nmn_cliff07.jpg      	nonmovNat	5	cliff     	7	cliff07     	76	not_alive	0	still	0	natural 	1	n	0	0        	 	0.0	0	167.512702000036	167.612694200012	0.0999921999755316
174635	100	354	stimuli/nonmovNat/rock/nmn_rock06.jpg            	1	5	1	nmn_rock06.jpg       	nonmovNat	5	rock      	30	rock06      	305	not_alive	0	still	0	natural 	1	n	0	0        	 	0.0	0	167.662702300004	167.762696899998	0.0999945999938063
174785	100	355	stimuli/nonmovNat/crystal/nmn_crystal10.jpg      	1	5	1	nmn_crystal10.jpg    	nonmovNat	5	crystal   	10	crystal10   	109	not_alive	0	still	0	natural 	1	n	0	0        	 	0.0	0	167.812712199986	167.912700299989	0.0999881000025198
174935	100	356	stimuli/nonmovArt/lock/nma_lock07.jpg            	1	5	1	nma_lock07.jpg       	nonmovArt	4	lock      	24	lock07      	246	not_alive	0	still	0	artefact	0	n	0	0        	 	0.0	0	167.962710599997	168.062704300042	0.099993700045161
175085	100	357	stimuli/movArt/car/ma_car03.jpg                  	1	5	1	ma_car03.jpg         	movArt   	2	car       	5	car03       	52	not_alive	0	moves	1	artefact	0	n	1	0        	 	0.0	0	168.112722499995	168.21270860004	0.0999861000454985
175235	100	358	stimuli/animals/dog/animal_dog09.jpg             	1	5	1	animal_dog09.jpg     	animals  	0	dog       	11	dog09       	118	alive    	1	moves	1	natural 	1	n	0	0        	 	0.0	0	168.262720400002	168.362715299998	0.0999948999960907
175385	100	359	stimuli/plant/grass/plant_grass03.jpg            	1	5	1	plant_grass03.jpg    	plant    	6	grass     	17	grass03     	172	alive    	1	still	0	natural 	1	n	0	1        	f	0.40019499999471	1	168.412725200003	168.512718699989	0.0999934999854304
175535	100	360	stimuli/nonmovNat/sand/nmn_sand04.jpg            	1	5	1	nmn_sand04.jpg       	nonmovNat	5	sand      	31	sand04      	313	not_alive	0	still	0	natural 	1	n	1	0        	 	0.0	0	168.562728399993	168.662720500026	0.0999921000329778
175685	100	361	stimuli/plant2/fern/plant_fern03.jpg             	1	5	1	plant_fern03.jpg     	plant2   	7	fern      	14	fern03      	142	alive    	1	still	0	natural 	1	n	0	0        	 	0.0	0	168.712735000008	168.812724500021	0.0999895000131801
175835	100	362	stimuli/nonmovArt/clothespeg/nma_clothespeg01.jpg	1	5	1	nma_clothespeg01.jpg 	nonmovArt	4	clothespeg	8	clothespeg01	80	not_alive	0	still	0	artefact	0	n	0	0        	 	0.0	0	168.862736799987	168.962730100029	0.0999933000421152
175985	100	363	stimuli/plant/flower/plant_flower08.jpg          	1	5	1	plant_flower08.jpg   	plant    	6	flower    	16	flower08    	167	alive    	1	still	0	natural 	1	n	0	0        	 	0.0	0	169.012738200021	169.112732300011	0.0999940999899991
176135	100	364	stimuli/plant2/clover/plant_clover10.jpg         	1	5	1	plant_clover10.jpg   	plant2   	7	clover    	9	clover10    	99	alive    	1	still	0	natural 	1	n	0	0        	 	0.0	0	169.162742000015	169.262737300014	0.0999952999991365
176285	100	365	stimuli/movArt/helicopter/ma_helicopter08.jpg    	1	5	1	ma_helicopter08.jpg  	movArt   	2	helicopter	19	helicopter08	197	not_alive	0	moves	1	artefact	0	n	0	0        	 	0.0	0	169.312748800032	169.412741800013	0.0999929999816231
176435	100	366	stimuli/movArt/bus/ma_bus03.jpg                  	1	5	1	ma_bus03.jpg         	movArt   	2	bus       	3	bus03       	32	not_alive	0	moves	1	artefact	0	n	0	0        	 	0.0	0	169.462751000014	169.56274329999	0.099992299976293
176585	100	367	stimuli/plant2/fern/plant_fern04.jpg             	1	5	1	plant_fern04.jpg     	plant2   	7	fern      	14	fern04      	143	alive    	1	still	0	natural 	1	n	0	0        	 	0.0	0	169.612754200003	169.712750600011	0.0999964000075124
176735	100	368	stimuli/nonmovNat/sand/nmn_sand08.jpg            	1	5	1	nmn_sand08.jpg       	nonmovNat	5	sand      	31	sand08      	317	not_alive	0	still	0	natural 	1	n	0	0        	 	0.0	0	169.762758199999	169.862753699999	0.0999955000006594
176885	100	369	stimuli/plant2/palmtree/plant_palmtree09.jpg     	1	5	1	plant_palmtree09.jpg 	plant2   	7	palmtree  	27	palmtree09  	278	alive    	1	still	0	natural 	1	n	0	0        	 	0.0	0	169.912773100019	170.012756499986	0.0999833999667317
177035	100	370	stimuli/plant/cactus/plant_cactus07.jpg          	1	5	1	plant_cactus07.jpg   	plant    	6	cactus    	4	cactus07    	46	alive    	1	still	0	natural 	1	n	0	0        	 	0.0	0	170.062767900003	170.16275920003	0.0999913000268862
177185	100	371	stimuli/plant/grass/plant_grass01.jpg            	1	5	1	plant_grass01.jpg    	plant    	6	grass     	17	grass01     	170	alive    	1	still	0	natural 	1	n	0	0        	 	0.0	0	170.212771699997	170.312764700036	0.0999930000398308
177335	100	372	stimuli/animals/dog/animal_dog05.jpg             	1	5	1	animal_dog05.jpg     	animals  	0	dog       	11	dog05       	114	alive    	1	moves	1	natural 	1	n	0	0        	 	0.0	0	170.362785000005	170.462769500038	0.0999845000333153
177485	100	373	stimuli/plant/tree/plant_tree08.jpg              	1	5	1	plant_tree08.jpg     	plant    	6	tree      	35	tree08      	357	alive    	1	still	0	natural 	1	n	0	0        	 	0.0	0	170.512783300015	170.612772900029	0.0999896000139415
177635	100	374	stimuli/plant2/clover/plant_clover07.jpg         	1	5	1	plant_clover07.jpg   	plant2   	7	clover    	9	clover07    	96	alive    	1	still	0	natural 	1	n	0	0        	 	0.0	0	170.662781800027	170.762787399988	0.10000559996115
177785	100	375	stimuli/movNat/hotspring/mn_hotspring06.jpg      	1	5	1	mn_hotspring06.jpg   	movNat   	3	hotspring 	21	hotspring06 	215	not_alive	0	moves	1	natural 	1	n	0	0        	 	0.0	0	170.812787000032	170.912780800019	0.0999937999877147
177935	100	376	stimuli/nonmovArt/headphones/nma_headphones07.jpg	1	5	1	nma_headphones07.jpg 	nonmovArt	4	headphones	18	headphones07	186	not_alive	0	still	0	artefact	0	n	0	0        	 	0.0	0	170.962790800026	171.062784900016	0.0999940999899991
178085	100	377	stimuli/plant/flower/plant_flower01.jpg          	1	5	1	plant_flower01.jpg   	plant    	6	flower    	16	flower01    	160	alive    	1	still	0	natural 	1	n	0	0        	 	0.0	0	171.112799199997	171.212788400007	0.0999892000108957
178235	100	378	stimuli/animals2/lemur/animal_lemur03.jpg        	1	5	1	animal_lemur03.jpg   	animals2 	1	lemur     	23	lemur03     	232	alive    	1	moves	1	natural 	1	n	0	0        	 	0.0	0	171.262799400021	171.362793900014	0.0999944999930449
178385	100	379	stimuli/movNat/fire/mn_fire10.jpg                	1	5	1	mn_fire10.jpg        	movNat   	3	fire      	15	fire10      	159	not_alive	0	moves	1	natural 	1	n	0	0        	 	0.0	0	171.412803600018	171.512798100011	0.0999944999930449
178535	100	380	stimuli/animals/cat/animal_cat04.jpg             	1	5	1	animal_cat04.jpg     	animals  	0	cat       	6	cat04       	63	alive    	1	moves	1	natural 	1	n	0	0        	 	0.0	0	171.562806000002	171.662799299986	0.0999932999839075
178685	100	381	stimuli/nonmovNat/cliff/nmn_cliff06.jpg          	1	5	1	nmn_cliff06.jpg      	nonmovNat	5	cliff     	7	cliff06     	75	not_alive	0	still	0	natural 	1	n	0	0        	 	0.0	0	171.712809799996	171.812802500033	0.0999927000375465
178835	100	382	stimuli/plant2/lemontree/plant_lemontree02.jpg   	1	5	1	plant_lemontree02.jpg	plant2   	7	lemontree 	22	lemontree02 	221	alive    	1	still	0	natural 	1	n	0	1        	f	0.0	0	171.862814099994	171.962821600027	0.100007500033826
178985	100	383	stimuli/nonmovNat/crystal/nmn_crystal06.jpg      	1	5	1	nmn_crystal06.jpg    	nonmovNat	5	crystal   	10	crystal06   	105	not_alive	0	still	0	natural 	1	n	0	0        	 	0.0	0	172.01281710004	172.112827500037	0.1000103999977
179135	100	384	stimuli/movArt/helicopter/ma_helicopter02.jpg    	1	5	1	ma_helicopter02.jpg  	movArt   	2	helicopter	19	helicopter02	191	not_alive	0	moves	1	artefact	0	n	0	0        	 	0.0	0	172.162821500038	172.262825699989	0.10000419995049
179285	100	385	stimuli/movNat/fire/mn_fire10.jpg                	1	5	1	mn_fire10.jpg        	movNat   	3	fire      	15	fire10      	159	not_alive	0	moves	1	natural 	1	n	0	0        	 	0.0	0	172.312826699985	172.412818700017	0.0999920000322163
179435	100	386	stimuli/plant/vine/plant_vine10.jpg              	1	5	1	plant_vine10.jpg     	plant    	6	vine      	36	vine10      	369	alive    	1	still	0	natural 	1	n	0	0        	 	0.0	0	172.462830100034	172.56282370002	0.0999935999861918
179585	100	387	stimuli/animals/dolphin/animal_dolphin02.jpg     	1	5	1	animal_dolphin02.jpg 	animals  	0	dolphin   	12	dolphin02   	121	alive    	1	moves	1	natural 	1	n	0	0        	 	0.0	0	172.612835600041	172.71283199999	0.0999963999493048
179735	100	388	stimuli/plant/flower/plant_flower07.jpg          	1	5	1	plant_flower07.jpg   	plant    	6	flower    	16	flower07    	166	alive    	1	still	0	natural 	1	n	0	0        	 	0.0	0	172.762838200026	172.862830900005	0.0999926999793388
179885	100	389	stimuli/nonmovArt/mug/nma_mug07.jpg              	1	5	1	nma_mug07.jpg        	nonmovArt	4	mug       	26	mug07       	266	not_alive	0	still	0	artefact	0	n	0	0        	 	0.0	0	172.912840900011	173.012835200003	0.099994299991522
180035	100	390	stimuli/animals/cat/animal_cat09.jpg             	1	5	1	animal_cat09.jpg     	animals  	0	cat       	6	cat09       	68	alive    	1	moves	1	natural 	1	n	0	0        	 	0.0	0	173.062845600012	173.162841000012	0.0999953999998979
180185	100	391	stimuli/movNat/waves/mn_waves10.jpg              	1	5	1	mn_waves10.jpg       	movNat   	3	waves     	38	waves10     	389	not_alive	0	moves	1	natural 	1	n	0	0        	 	0.0	0	173.212850800017	173.312843499996	0.0999926999793388
180335	100	392	stimuli/animals2/lemur/animal_lemur07.jpg        	1	5	1	animal_lemur07.jpg   	animals2 	1	lemur     	23	lemur07     	236	alive    	1	moves	1	natural 	1	n	0	0        	 	0.0	0	173.362855500018	173.462847199989	0.0999916999717243
180485	100	393	stimuli/nonmovNat/sand/nmn_sand10.jpg            	1	5	1	nmn_sand10.jpg       	nonmovNat	5	sand      	31	sand10      	319	not_alive	0	still	0	natural 	1	n	0	0        	 	0.0	0	173.512858400005	173.612851499987	0.0999930999823846
180635	100	394	stimuli/nonmovArt/lock/nma_lock02.jpg            	1	5	1	nma_lock02.jpg       	nonmovArt	4	lock      	24	lock02      	241	not_alive	0	still	0	artefact	0	n	0	0        	 	0.0	0	173.662861499994	173.762856099987	0.0999945999938063
180785	100	395	stimuli/animals2/bee/animal_bee04.jpg            	1	5	1	animal_bee04.jpg     	animals2 	1	bee       	0	bee04       	3	alive    	1	moves	1	natural 	1	n	0	0        	 	0.0	0	173.812867500004	173.912858100026	0.099990600021556
180935	100	396	stimuli/nonmovNat/rock/nmn_rock05.jpg            	1	5	1	nmn_rock05.jpg       	nonmovNat	5	rock      	30	rock05      	304	not_alive	0	still	0	natural 	1	n	0	0        	 	0.0	0	173.962869200041	174.062862800027	0.0999935999861918
181085	100	397	stimuli/nonmovArt/mug/nma_mug02.jpg              	1	5	1	nma_mug02.jpg        	nonmovArt	4	mug       	26	mug02       	261	not_alive	0	still	0	artefact	0	n	0	0        	 	0.0	0	174.112872600032	174.21286650002	0.0999938999884762
181235	100	398	stimuli/animals2/bee/animal_bee02.jpg            	1	5	1	animal_bee02.jpg     	animals2 	1	bee       	0	bee02       	1	alive    	1	moves	1	natural 	1	n	0	0        	 	0.0	0	174.262878899986	174.362872300029	0.0999934000428766
181385	100	399	stimuli/movNat/river/mn_river07.jpg              	1	5	1	mn_river07.jpg       	movNat   	3	river     	29	river07     	296	not_alive	0	moves	1	natural 	1	n	0	0        	 	0.0	0	174.412891999993	174.512876800029	0.0999848000355996
185519	100	400	stimuli/nonmovArt/bench/nma_bench02.jpg          	1	6	1	nma_bench02.jpg      	nonmovArt	4	bench     	1	bench02     	11	not_alive	0	still	0	artefact	0	n	0	0        	 	0.0	0	178.54633089999	178.646318199986	0.0999872999964282
185669	100	401	stimuli/nonmovArt/headphones/nma_headphones01.jpg	1	6	1	nma_headphones01.jpg 	nonmovArt	4	headphones	18	headphones01	180	not_alive	0	still	0	artefact	0	n	0	0        	 	0.0	0	178.6963368	178.796320600028	0.0999838000279851
185819	100	402	stimuli/animals2/whale/animal_whale07.jpg        	1	6	1	animal_whale07.jpg   	animals2 	1	whale     	39	whale07     	396	alive    	1	moves	1	natural 	1	n	0	0        	 	0.0	0	178.846344400023	178.946327100042	0.0999827000196092
185969	100	403	stimuli/nonmovArt/bench/nma_bench03.jpg          	1	6	1	nma_bench03.jpg      	nonmovArt	4	bench     	1	bench03     	12	not_alive	0	still	0	artefact	0	n	0	0        	 	0.0	0	178.996336399985	179.096339599986	0.100003200001083
186119	100	404	stimuli/movArt/car/ma_car08.jpg                  	1	6	1	ma_car08.jpg         	movArt   	2	car       	5	car08       	57	not_alive	0	moves	1	artefact	0	n	0	0        	 	0.0	0	179.146340500039	179.246347000008	0.100006499968003
186269	100	405	stimuli/nonmovArt/lock/nma_lock01.jpg            	1	6	1	nma_lock01.jpg       	nonmovArt	4	lock      	24	lock01      	240	not_alive	0	still	0	artefact	0	n	0	0        	 	0.0	0	179.296344200033	179.396339100029	0.0999948999960907
186419	100	406	stimuli/animals2/whale/animal_whale04.jpg        	1	6	1	animal_whale04.jpg   	animals2 	1	whale     	39	whale04     	393	alive    	1	moves	1	natural 	1	n	0	0        	 	0.0	0	179.446349300037	179.546340300003	0.0999909999663942
186569	100	407	stimuli/nonmovNat/crystal/nmn_crystal06.jpg      	1	6	1	nmn_crystal06.jpg    	nonmovNat	5	crystal   	10	crystal06   	105	not_alive	0	still	0	natural 	1	n	0	0        	 	0.0	0	179.596378699993	179.696339300019	0.0999606000259519
186719	100	408	stimuli/movNat/waterfall/mn_waterfall10.jpg      	1	6	1	mn_waterfall10.jpg   	movNat   	3	waterfall 	37	waterfall10 	379	not_alive	0	moves	1	natural 	1	n	0	0        	 	0.0	0	179.746351200039	179.846342600009	0.09999139996944
186869	100	409	stimuli/movNat/waterfall/mn_waterfall02.jpg      	1	6	1	mn_waterfall02.jpg   	movNat   	3	waterfall 	37	waterfall02 	371	not_alive	0	moves	1	natural 	1	n	0	0        	 	0.0	0	179.896362700034	179.996346800006	0.0999840999720618
187019	100	410	stimuli/animals/eagle/animal_eagle02.jpg         	1	6	1	animal_eagle02.jpg   	animals  	0	eagle     	13	eagle02     	131	alive    	1	moves	1	natural 	1	n	0	0        	 	0.0	0	180.046358500025	180.146355100034	0.0999966000090353
187169	100	411	stimuli/movArt/boat/ma_boat07.jpg                	1	6	1	ma_boat07.jpg        	movArt   	2	boat      	2	boat07      	26	not_alive	0	moves	1	artefact	0	n	0	0        	 	0.0	0	180.196378300025	180.296355700004	0.0999773999792524
187319	100	412	stimuli/plant/vine/plant_vine05.jpg              	1	6	1	plant_vine05.jpg     	plant    	6	vine      	36	vine05      	364	alive    	1	still	0	natural 	1	n	0	0        	 	0.0	0	180.346394399996	180.446359099995	0.0999646999989636
