onset	duration	eventnumber	stimulus_file	blockno	trialno	is_faststream	stim	stim_category	category_number	exemplar	exemplar_number	image_name	image_number	aliveness	aliveness_bin	movement	movement_bin	naturalness	naturalness_bin	response_hand_alive	istarget	response	keypressed	rt	correct	time_stimon	time_stimoff	stimdur
112548	100	0	stimuli/nonmovArt/headphones/nma_headphones06.jpg	1	1	1	nma_headphones06.jpg 	nonmovArt	4	headphones	18	headphones06	185	not_alive	0	still	0	artefact	0	n	0	0        	 	0.0	0	137.390921499929	137.490909199929	0.099987699999474
112698	100	1	stimuli/animals2/pigeon/animal_pigeon10.jpg      	1	1	1	animal_pigeon10.jpg  	animals2 	1	pigeon    	28	pigeon10    	289	alive    	1	moves	1	natural 	1	n	0	0        	 	0.0	0	137.540931399912	137.640927199973	0.0999958000611514
112848	100	2	stimuli/nonmovNat/shell/nmn_shell02.jpg          	1	1	1	nmn_shell02.jpg      	nonmovNat	5	shell     	32	shell02     	321	not_alive	0	still	0	natural 	1	n	0	1        	f	0.0	0	137.690919899964	137.790935699944	0.100015799980611
112998	100	3	stimuli/animals/dolphin/animal_dolphin08.jpg     	1	1	1	animal_dolphin08.jpg 	animals  	0	dolphin   	12	dolphin08   	127	alive    	1	moves	1	natural 	1	n	0	0        	 	0.0	0	137.840927399928	137.940922299982	0.0999949000542983
113148	100	4	stimuli/movNat/hotspring/mn_hotspring02.jpg      	1	1	1	mn_hotspring02.jpg   	movNat   	3	hotspring 	21	hotspring02 	211	not_alive	0	moves	1	natural 	1	n	0	0        	 	0.0	0	137.990931099979	138.091082499945	0.100151399965398
113298	100	5	stimuli/plant2/fern/plant_fern08.jpg             	1	1	1	plant_fern08.jpg     	plant2   	7	fern      	14	fern08      	147	alive    	1	still	0	natural 	1	n	0	0        	 	0.0	0	138.140949999914	138.24092120002	0.0999712001066655
113448	100	6	stimuli/movArt/helicopter/ma_helicopter10.jpg    	1	1	1	ma_helicopter10.jpg  	movArt   	2	helicopter	19	helicopter10	199	not_alive	0	moves	1	artefact	0	n	0	0        	 	0.0	0	138.290934099932	138.390944899991	0.100010800058953
113598	100	7	stimuli/movNat/fire/mn_fire01.jpg                	1	1	1	mn_fire01.jpg        	movNat   	3	fire      	15	fire01      	150	not_alive	0	moves	1	natural 	1	n	0	0        	 	0.0	0	138.441234000027	138.540943900007	0.0997098999796435
113748	100	8	stimuli/animals/horse/animal_horse02.jpg         	1	1	1	animal_horse02.jpg   	animals  	0	horse     	20	horse02     	201	alive    	1	moves	1	natural 	1	n	0	0        	 	0.0	0	138.590940799913	138.690928799915	0.0999880000017583
113898	100	9	stimuli/nonmovNat/sand/nmn_sand03.jpg            	1	1	1	nmn_sand03.jpg       	nonmovNat	5	sand      	31	sand03      	312	not_alive	0	still	0	natural 	1	n	0	0        	 	0.0	0	138.740944999969	138.840935799992	0.0999908000230789
114048	100	10	stimuli/nonmovArt/lock/nma_lock07.jpg            	1	1	1	nma_lock07.jpg       	nonmovArt	4	lock      	24	lock07      	246	not_alive	0	still	0	artefact	0	n	0	0        	 	0.0	0	138.890957199968	138.990940099931	0.0999828999629244
114198	100	11	stimuli/movNat/river/mn_river03.jpg              	1	1	1	mn_river03.jpg       	movNat   	3	river     	29	river03     	292	not_alive	0	moves	1	natural 	1	n	0	0        	 	0.0	0	139.040950699942	139.140953799942	0.100003100000322
114348	100	12	stimuli/animals2/lemur/animal_lemur10.jpg        	1	1	1	animal_lemur10.jpg   	animals2 	1	lemur     	23	lemur10     	239	alive    	1	moves	1	natural 	1	n	0	0        	 	0.0	0	139.190954199992	139.290950599941	0.0999963999493048
114498	100	13	stimuli/animals/horse/animal_horse01.jpg         	1	1	1	animal_horse01.jpg   	animals  	0	horse     	20	horse01     	200	alive    	1	moves	1	natural 	1	n	0	0        	 	0.0	0	139.340960099944	139.440951999975	0.0999919000314549
114648	100	14	stimuli/movArt/car/ma_car02.jpg                  	1	1	1	ma_car02.jpg         	movArt   	2	car       	5	car02       	51	not_alive	0	moves	1	artefact	0	n	0	0        	 	0.0	0	139.490984699922	139.590954900021	0.099970200099051
114798	100	15	stimuli/plant2/palmtree/plant_palmtree07.jpg     	1	1	1	plant_palmtree07.jpg 	plant2   	7	palmtree  	27	palmtree07  	276	alive    	1	still	0	natural 	1	n	1	0        	 	0.0	0	139.640984999947	139.740960099967	0.0999751000199467
114948	100	16	stimuli/movArt/bus/ma_bus04.jpg                  	1	1	1	ma_bus04.jpg         	movArt   	2	bus       	3	bus04       	33	not_alive	0	moves	1	artefact	0	n	0	0        	 	0.0	0	139.790969199967	139.890978400013	0.10000920004677
115098	100	17	stimuli/movArt/car/ma_car10.jpg                  	1	1	1	ma_car10.jpg         	movArt   	2	car       	5	car10       	59	not_alive	0	moves	1	artefact	0	n	0	0        	 	0.0	0	139.940971300006	140.040966499946	0.0999951999401674
115248	100	18	stimuli/nonmovNat/cliff/nmn_cliff06.jpg          	1	1	1	nmn_cliff06.jpg      	nonmovNat	5	cliff     	7	cliff06     	75	not_alive	0	still	0	natural 	1	n	0	0        	 	0.0	0	140.090979499975	140.190969499992	0.0999900000169873
115398	100	19	stimuli/animals/dog/animal_dog03.jpg             	1	1	1	animal_dog03.jpg     	animals  	0	dog       	11	dog03       	112	alive    	1	moves	1	natural 	1	n	0	0        	 	0.0	0	140.240997200017	140.340974599938	0.0999773999210447
115548	100	20	stimuli/movArt/helicopter/ma_helicopter02.jpg    	1	1	1	ma_helicopter02.jpg  	movArt   	2	helicopter	19	helicopter02	191	not_alive	0	moves	1	artefact	0	n	0	0        	 	0.0	0	140.390996399918	140.49098100001	0.0999846000922844
115698	100	21	stimuli/animals2/pigeon/animal_pigeon05.jpg      	1	1	1	animal_pigeon05.jpg  	animals2 	1	pigeon    	28	pigeon05    	284	alive    	1	moves	1	natural 	1	n	0	0        	 	0.0	0	140.540985999978	140.64097920002	0.0999932000413537
115848	100	22	stimuli/movNat/hotspring/mn_hotspring01.jpg      	1	1	1	mn_hotspring01.jpg   	movNat   	3	hotspring 	21	hotspring01 	210	not_alive	0	moves	1	natural 	1	n	0	0        	 	0.0	0	140.690991699928	140.790985799977	0.0999941000482068
115998	100	23	stimuli/nonmovArt/bench/nma_bench03.jpg          	1	1	1	nma_bench03.jpg      	nonmovArt	4	bench     	1	bench03     	12	not_alive	0	still	0	artefact	0	n	0	0        	 	0.0	0	140.840995899984	140.94098710001	0.0999912000261247
116148	100	24	stimuli/movNat/waves/mn_waves06.jpg              	1	1	1	mn_waves06.jpg       	movNat   	3	waves     	38	waves06     	385	not_alive	0	moves	1	natural 	1	n	0	0        	 	0.0	0	140.991000699927	141.090992999962	0.0999923000345007
116298	100	25	stimuli/nonmovNat/shell/nmn_shell08.jpg          	1	1	1	nmn_shell08.jpg      	nonmovNat	5	shell     	32	shell08     	327	not_alive	0	still	0	natural 	1	n	0	0        	 	0.0	0	141.141009400017	141.240994899999	0.0999854999827221
116448	100	26	stimuli/plant/flower/plant_flower09.jpg          	1	1	1	plant_flower09.jpg   	plant    	6	flower    	16	flower09    	168	alive    	1	still	0	natural 	1	n	0	0        	 	0.0	0	141.291008299915	141.390998899937	0.099990600021556
116598	100	27	stimuli/animals2/bee/animal_bee09.jpg            	1	1	1	animal_bee09.jpg     	animals2 	1	bee       	0	bee09       	8	alive    	1	moves	1	natural 	1	n	0	0        	 	0.0	0	141.441010999959	141.541003499995	0.0999925000360236
116748	100	28	stimuli/movArt/bus/ma_bus06.jpg                  	1	1	1	ma_bus06.jpg         	movArt   	2	bus       	3	bus06       	35	not_alive	0	moves	1	artefact	0	n	0	0        	 	0.0	0	141.591011799988	141.691008199938	0.0999963999493048
116898	100	29	stimuli/movArt/train/ma_train06.jpg              	1	1	1	ma_train06.jpg       	movArt   	2	train     	34	train06     	345	not_alive	0	moves	1	artefact	0	n	0	0        	 	0.0	0	141.741016299929	141.841011099983	0.0999948000535369
117048	100	30	stimuli/movArt/helicopter/ma_helicopter07.jpg    	1	1	1	ma_helicopter07.jpg  	movArt   	2	helicopter	19	helicopter07	196	not_alive	0	moves	1	artefact	0	n	0	0        	 	0.0	0	141.891020899988	141.991015199921	0.0999942999333143
117198	100	31	stimuli/plant/tree/plant_tree07.jpg              	1	1	1	plant_tree07.jpg     	plant    	6	tree      	35	tree07      	356	alive    	1	still	0	natural 	1	n	0	0        	 	0.0	0	142.041024799924	142.141016899957	0.0999921000329778
117348	100	32	stimuli/plant/flower/plant_flower06.jpg          	1	1	1	plant_flower06.jpg   	plant    	6	flower    	16	flower06    	165	alive    	1	still	0	natural 	1	n	0	0        	 	0.0	0	142.19102899998	142.291039799922	0.100010799942538
117498	100	33	stimuli/plant/tree/plant_tree01.jpg              	1	1	1	plant_tree01.jpg     	plant    	6	tree      	35	tree01      	350	alive    	1	still	0	natural 	1	n	0	0        	 	0.0	0	142.34103469993	142.441025799955	0.0999911000253633
117648	100	34	stimuli/animals/cat/animal_cat07.jpg             	1	1	1	animal_cat07.jpg     	animals  	0	cat       	6	cat07       	66	alive    	1	moves	1	natural 	1	n	0	0        	 	0.0	0	142.491034699953	142.591066299938	0.100031599984504
117798	100	35	stimuli/animals/cat/animal_cat10.jpg             	1	1	1	animal_cat10.jpg     	animals  	0	cat       	6	cat10       	69	alive    	1	moves	1	natural 	1	n	0	0        	 	0.0	0	142.641040300019	142.741033699946	0.0999933999264613
117948	100	36	stimuli/animals2/lemur/animal_lemur06.jpg        	1	1	1	animal_lemur06.jpg   	animals2 	1	lemur     	23	lemur06     	235	alive    	1	moves	1	natural 	1	n	0	0        	 	0.0	0	142.79104209994	142.891034199973	0.0999921000329778
118098	100	37	stimuli/movArt/bus/ma_bus04.jpg                  	1	1	1	ma_bus04.jpg         	movArt   	2	bus       	3	bus04       	33	not_alive	0	moves	1	artefact	0	n	0	0        	 	0.0	0	142.941044899984	143.041040299926	0.0999953999416903
118248	100	38	stimuli/nonmovArt/bench/nma_bench03.jpg          	1	1	1	nma_bench03.jpg      	nonmovArt	4	bench     	1	bench03     	12	not_alive	0	still	0	artefact	0	n	0	0        	 	0.0	0	143.091053699958	143.191042799968	0.0999891000101343
118398	100	39	stimuli/plant2/clover/plant_clover10.jpg         	1	1	1	plant_clover10.jpg   	plant2   	7	clover    	9	clover10    	99	alive    	1	still	0	natural 	1	n	0	0        	 	0.0	0	143.241054299986	143.341075500008	0.100021200021729
118548	100	40	stimuli/movArt/boat/ma_boat10.jpg                	1	1	1	ma_boat10.jpg        	movArt   	2	boat      	2	boat10      	29	not_alive	0	moves	1	artefact	0	n	0	0        	 	0.0	0	143.391061399947	143.49108409998	0.100022700033151
118698	100	41	stimuli/plant/vine/plant_vine02.jpg              	1	1	1	plant_vine02.jpg     	plant    	6	vine      	36	vine02      	361	alive    	1	still	0	natural 	1	n	0	0        	 	0.0	0	143.541061899974	143.641054600012	0.0999927000375465
118848	100	42	stimuli/nonmovNat/cliff/nmn_cliff02.jpg          	1	1	1	nmn_cliff02.jpg      	nonmovNat	5	cliff     	7	cliff02     	71	not_alive	0	still	0	natural 	1	n	0	0        	 	0.0	0	143.691105799982	143.791057999944	0.0999521999619901
118998	100	43	stimuli/movArt/train/ma_train07.jpg              	1	1	1	ma_train07.jpg       	movArt   	2	train     	34	train07     	346	not_alive	0	moves	1	artefact	0	n	0	0        	 	0.0	0	143.84106789995	143.941075599985	0.100007700035349
119148	100	44	stimuli/plant2/palmtree/plant_palmtree09.jpg     	1	1	1	plant_palmtree09.jpg 	plant2   	7	palmtree  	27	palmtree09  	278	alive    	1	still	0	natural 	1	n	0	0        	 	0.0	0	143.991072100005	144.091078999918	0.100006899912842
119298	100	45	stimuli/nonmovArt/mug/nma_mug10.jpg              	1	1	1	nma_mug10.jpg        	nonmovArt	4	mug       	26	mug10       	269	not_alive	0	still	0	artefact	0	n	0	0        	 	0.0	0	144.141075699939	144.241070899996	0.0999952000565827
119448	100	46	stimuli/animals/dolphin/animal_dolphin10.jpg     	1	1	1	animal_dolphin10.jpg 	animals  	0	dolphin   	12	dolphin10   	129	alive    	1	moves	1	natural 	1	n	0	0        	 	0.0	0	144.291079799994	144.391071900027	0.0999921000329778
119598	100	47	stimuli/nonmovArt/mug/nma_mug03.jpg              	1	1	1	nma_mug03.jpg        	nonmovArt	4	mug       	26	mug03       	262	not_alive	0	still	0	artefact	0	n	0	0        	 	0.0	0	144.441125700017	144.541077199974	0.09995149995666
119748	100	48	stimuli/animals/dolphin/animal_dolphin04.jpg     	1	1	1	animal_dolphin04.jpg 	animals  	0	dolphin   	12	dolphin04   	123	alive    	1	moves	1	natural 	1	n	0	0        	 	0.0	0	144.591089499998	144.691093200003	0.100003700004891
119898	100	49	stimuli/nonmovNat/sand/nmn_sand02.jpg            	1	1	1	nmn_sand02.jpg       	nonmovNat	5	sand      	31	sand02      	311	not_alive	0	still	0	natural 	1	n	0	0        	 	0.0	0	144.741090799915	144.841084899963	0.0999941000482068
120048	100	50	stimuli/nonmovArt/clothespeg/nma_clothespeg03.jpg	1	1	1	nma_clothespeg03.jpg 	nonmovArt	4	clothespeg	8	clothespeg03	82	not_alive	0	still	0	artefact	0	n	0	0        	 	0.0	0	144.891097199987	144.991088400013	0.0999912000261247
120198	100	51	stimuli/movNat/waves/mn_waves10.jpg              	1	1	1	mn_waves10.jpg       	movNat   	3	waves     	38	waves10     	389	not_alive	0	moves	1	natural 	1	n	0	0        	 	0.0	0	145.041113400017	145.141091799946	0.0999783999286592
120348	100	52	stimuli/nonmovNat/rock/nmn_rock01.jpg            	1	1	1	nmn_rock01.jpg       	nonmovNat	5	rock      	30	rock01      	300	not_alive	0	still	0	natural 	1	n	1	0        	 	0.0	0	145.191129999934	145.29110459995	0.0999746000161394
120498	100	53	stimuli/plant/cactus/plant_cactus06.jpg          	1	1	1	plant_cactus06.jpg   	plant    	6	cactus    	4	cactus06    	45	alive    	1	still	0	natural 	1	n	1	0        	 	0.0	0	145.341105400003	145.441111100023	0.10000570002012
120648	100	54	stimuli/movNat/waterfall/mn_waterfall03.jpg      	1	1	1	mn_waterfall03.jpg   	movNat   	3	waterfall 	37	waterfall03 	372	not_alive	0	moves	1	natural 	1	n	0	1        	f	0.241969199967571	1	145.491108899936	145.591101999977	0.0999931000405922
120798	100	55	stimuli/nonmovNat/sand/nmn_sand02.jpg            	1	1	1	nmn_sand02.jpg       	nonmovNat	5	sand      	31	sand02      	311	not_alive	0	still	0	natural 	1	n	0	0        	 	0.0	0	145.641111099976	145.74110679992	0.0999956999439746
120948	100	56	stimuli/animals2/lemur/animal_lemur09.jpg        	1	1	1	animal_lemur09.jpg   	animals2 	1	lemur     	23	lemur09     	238	alive    	1	moves	1	natural 	1	n	0	0        	 	0.0	0	145.791135799955	145.891111099976	0.0999753000214696
121098	100	57	stimuli/plant2/clover/plant_clover02.jpg         	1	1	1	plant_clover02.jpg   	plant2   	7	clover    	9	clover02    	91	alive    	1	still	0	natural 	1	n	0	0        	 	0.0	0	145.941138099995	146.041113300016	0.0999752000207081
121248	100	58	stimuli/nonmovNat/rock/nmn_rock03.jpg            	1	1	1	nmn_rock03.jpg       	nonmovNat	5	rock      	30	rock03      	302	not_alive	0	still	0	natural 	1	n	0	0        	 	0.0	0	146.091122900019	146.19111819996	0.0999952999409288
121398	100	59	stimuli/movNat/waterfall/mn_waterfall09.jpg      	1	1	1	mn_waterfall09.jpg   	movNat   	3	waterfall 	37	waterfall09 	378	not_alive	0	moves	1	natural 	1	n	1	0        	 	0.0	0	146.24112999998	146.341119499993	0.0999895000131801
121548	100	60	stimuli/plant2/moss/plant_moss02.jpg             	1	1	1	plant_moss02.jpg     	plant2   	7	moss      	25	moss02      	251	alive    	1	still	0	natural 	1	n	0	0        	 	0.0	0	146.391130700009	146.491123899934	0.0999931999249384
121698	100	61	stimuli/nonmovNat/crystal/nmn_crystal04.jpg      	1	1	1	nmn_crystal04.jpg    	nonmovNat	5	crystal   	10	crystal04   	103	not_alive	0	still	0	natural 	1	n	0	0        	 	0.0	0	146.541173800011	146.641128399991	0.0999545999802649
121848	100	62	stimuli/animals2/tiger/animal_tiger09.jpg        	1	1	1	animal_tiger09.jpg   	animals2 	1	tiger     	33	tiger09     	338	alive    	1	moves	1	natural 	1	n	0	0        	 	0.0	0	146.691151099978	146.791132099926	0.0999809999484569
121998	100	63	stimuli/animals/cat/animal_cat03.jpg             	1	1	1	animal_cat03.jpg     	animals  	0	cat       	6	cat03       	62	alive    	1	moves	1	natural 	1	n	0	0        	 	0.0	0	146.841143299942	146.941137999995	0.0999947000527754
122148	100	64	stimuli/plant2/lemontree/plant_lemontree04.jpg   	1	1	1	plant_lemontree04.jpg	plant2   	7	lemontree 	22	lemontree04 	223	alive    	1	still	0	natural 	1	n	0	0        	 	0.0	0	146.991144799977	147.091138700023	0.0999939000466838
122298	100	65	stimuli/plant/grass/plant_grass10.jpg            	1	1	1	plant_grass10.jpg    	plant    	6	grass     	17	grass10     	179	alive    	1	still	0	natural 	1	n	0	0        	 	0.0	0	147.141149499919	147.241144299973	0.0999948000535369
122448	100	66	stimuli/nonmovArt/mug/nma_mug06.jpg              	1	1	1	nma_mug06.jpg        	nonmovArt	4	mug       	26	mug06       	265	not_alive	0	still	0	artefact	0	n	0	0        	 	0.0	0	147.291153399972	147.391145000001	0.0999916000291705
122598	100	67	stimuli/nonmovNat/crystal/nmn_crystal03.jpg      	1	1	1	nmn_crystal03.jpg    	nonmovNat	5	crystal   	10	crystal03   	102	not_alive	0	still	0	natural 	1	n	0	0        	 	0.0	0	147.441158299916	147.541151499958	0.0999932000413537
122748	100	68	stimuli/animals2/whale/animal_whale05.jpg        	1	1	1	animal_whale05.jpg   	animals2 	1	whale     	39	whale05     	394	alive    	1	moves	1	natural 	1	n	0	0        	 	0.0	0	147.591160699958	147.691154500004	0.0999938000459224
122898	100	69	stimuli/movNat/waves/mn_waves04.jpg              	1	1	1	mn_waves04.jpg       	movNat   	3	waves     	38	waves04     	383	not_alive	0	moves	1	natural 	1	n	0	0        	 	0.0	0	147.741163700004	147.841161899967	0.0999981999630108
123048	100	70	stimuli/animals/eagle/animal_eagle04.jpg         	1	1	1	animal_eagle04.jpg   	animals  	0	eagle     	13	eagle04     	133	alive    	1	moves	1	natural 	1	n	0	0        	 	0.0	0	147.891169799957	147.991163500003	0.099993700045161
123198	100	71	stimuli/nonmovArt/clothespeg/nma_clothespeg06.jpg	1	1	1	nma_clothespeg06.jpg 	nonmovArt	4	clothespeg	8	clothespeg06	85	not_alive	0	still	0	artefact	0	n	0	0        	 	0.0	0	148.041171299992	148.141187199974	0.100015899981372
123348	100	72	stimuli/animals/horse/animal_horse01.jpg         	1	1	1	animal_horse01.jpg   	animals  	0	horse     	20	horse01     	200	alive    	1	moves	1	natural 	1	n	0	0        	 	0.0	0	148.191174199921	148.291174300015	0.100000100093894
123498	100	73	stimuli/plant/vine/plant_vine07.jpg              	1	1	1	plant_vine07.jpg     	plant    	6	vine      	36	vine07      	366	alive    	1	still	0	natural 	1	n	0	0        	 	0.0	0	148.341185100027	148.441177399945	0.0999922999180853
123648	100	74	stimuli/animals/dog/animal_dog07.jpg             	1	1	1	animal_dog07.jpg     	animals  	0	dog       	11	dog07       	116	alive    	1	moves	1	natural 	1	n	0	0        	 	0.0	0	148.491188899963	148.591181900003	0.0999930000398308
123798	100	75	stimuli/plant/vine/plant_vine10.jpg              	1	1	1	plant_vine10.jpg     	plant    	6	vine      	36	vine10      	369	alive    	1	still	0	natural 	1	n	0	0        	 	0.0	0	148.641191600007	148.741186699946	0.0999950999394059
123948	100	76	stimuli/animals/eagle/animal_eagle01.jpg         	1	1	1	animal_eagle01.jpg   	animals  	0	eagle     	13	eagle01     	130	alive    	1	moves	1	natural 	1	n	0	0        	 	0.0	0	148.791196499951	148.891216499964	0.100020000012591
124098	100	77	stimuli/plant2/clover/plant_clover06.jpg         	1	1	1	plant_clover06.jpg   	plant2   	7	clover    	9	clover06    	95	alive    	1	still	0	natural 	1	n	0	0        	 	0.0	0	148.941206899937	149.04119369993	0.0999867999926209
124248	100	78	stimuli/plant2/fern/plant_fern08.jpg             	1	1	1	plant_fern08.jpg     	plant2   	7	fern      	14	fern08      	147	alive    	1	still	0	natural 	1	n	0	0        	 	0.0	0	149.091202399926	149.191197099979	0.0999947000527754
124398	100	79	stimuli/nonmovArt/bench/nma_bench04.jpg          	1	1	1	nma_bench04.jpg      	nonmovArt	4	bench     	1	bench04     	13	not_alive	0	still	0	artefact	0	n	0	0        	 	0.0	0	149.241207499988	149.341202399926	0.099994899937883
129565	100	80	stimuli/plant/tree/plant_tree07.jpg              	1	2	1	plant_tree07.jpg     	plant    	6	tree      	35	tree07      	356	alive    	1	still	0	natural 	1	n	0	0        	 	0.0	0	154.408025700017	154.507993999985	0.0999682999681681
129715	100	81	stimuli/movArt/train/ma_train09.jpg              	1	2	1	ma_train09.jpg       	movArt   	2	train     	34	train09     	348	not_alive	0	moves	1	artefact	0	n	0	0        	 	0.0	0	154.558006300009	154.658012099913	0.100005799904466
129865	100	82	stimuli/animals2/bee/animal_bee02.jpg            	1	2	1	animal_bee02.jpg     	animals2 	1	bee       	0	bee02       	1	alive    	1	moves	1	natural 	1	n	0	0        	 	0.0	0	154.708007499925	154.808007000014	0.099999500089325
130015	100	83	stimuli/movNat/river/mn_river06.jpg              	1	2	1	mn_river06.jpg       	movNat   	3	river     	29	river06     	295	not_alive	0	moves	1	natural 	1	n	0	0        	 	0.0	0	154.858036799938	154.958003800013	0.0999670000746846
130165	100	84	stimuli/plant/flower/plant_flower03.jpg          	1	2	1	plant_flower03.jpg   	plant    	6	flower    	16	flower03    	162	alive    	1	still	0	natural 	1	n	0	0        	 	0.0	0	155.00801609992	155.108013199992	0.0999971000710502
130315	100	85	stimuli/nonmovNat/cliff/nmn_cliff06.jpg          	1	2	1	nmn_cliff06.jpg      	nonmovNat	5	cliff     	7	cliff06     	75	not_alive	0	still	0	natural 	1	n	0	0        	 	0.0	0	155.158048999961	155.258013500017	0.0999645000556484
130465	100	86	stimuli/animals2/tiger/animal_tiger02.jpg        	1	2	1	animal_tiger02.jpg   	animals2 	1	tiger     	33	tiger02     	331	alive    	1	moves	1	natural 	1	n	0	0        	 	0.0	0	155.308023700025	155.408028899925	0.100005199899897
130615	100	87	stimuli/animals2/whale/animal_whale01.jpg        	1	2	1	animal_whale01.jpg   	animals2 	1	whale     	39	whale01     	390	alive    	1	moves	1	natural 	1	n	0	0        	 	0.0	0	155.45802609995	155.558020099998	0.0999940000474453
130765	100	88	stimuli/movNat/river/mn_river06.jpg              	1	2	1	mn_river06.jpg       	movNat   	3	river     	29	river06     	295	not_alive	0	moves	1	natural 	1	n	0	0        	 	0.0	0	155.608031700016	155.708022899926	0.0999911999097094
130915	100	89	stimuli/animals/dog/animal_dog04.jpg             	1	2	1	animal_dog04.jpg     	animals  	0	dog       	11	dog04       	113	alive    	1	moves	1	natural 	1	n	0	0        	 	0.0	0	155.758059000014	155.85802699998	0.0999679999658838
131065	100	90	stimuli/plant/grass/plant_grass07.jpg            	1	2	1	plant_grass07.jpg    	plant    	6	grass     	17	grass07     	176	alive    	1	still	0	natural 	1	n	0	0        	 	0.0	0	155.908053799998	156.00803129992	0.0999774999218062
131215	100	91	stimuli/plant/grass/plant_grass01.jpg            	1	2	1	plant_grass01.jpg    	plant    	6	grass     	17	grass01     	170	alive    	1	still	0	natural 	1	n	0	0        	 	0.0	0	156.058044199948	156.158048599958	0.100004400010221
131365	100	92	stimuli/nonmovArt/lock/nma_lock06.jpg            	1	2	1	nma_lock06.jpg       	nonmovArt	4	lock      	24	lock06      	245	not_alive	0	still	0	artefact	0	n	0	0        	 	0.0	0	156.208044799976	156.308039100026	0.0999943000497296
131515	100	93	stimuli/animals/eagle/animal_eagle03.jpg         	1	2	1	animal_eagle03.jpg   	animals  	0	eagle     	13	eagle03     	132	alive    	1	moves	1	natural 	1	n	0	0        	 	0.0	0	156.358049099916	156.458066999912	0.100017899996601
131665	100	94	stimuli/nonmovArt/headphones/nma_headphones04.jpg	1	2	1	nma_headphones04.jpg 	nonmovArt	4	headphones	18	headphones04	183	not_alive	0	still	0	artefact	0	n	0	0        	 	0.0	0	156.508069499978	156.608045000001	0.0999755000229925
131815	100	95	stimuli/animals2/pigeon/animal_pigeon04.jpg      	1	2	1	animal_pigeon04.jpg  	animals2 	1	pigeon    	28	pigeon04    	283	alive    	1	moves	1	natural 	1	n	0	0        	 	0.0	0	156.658065699972	156.758051099954	0.0999853999819606
131965	100	96	stimuli/plant2/moss/plant_moss08.jpg             	1	2	1	plant_moss08.jpg     	plant2   	7	moss      	25	moss08      	257	alive    	1	still	0	natural 	1	n	0	0        	 	0.0	0	156.808063399978	156.908051799983	0.0999884000048041
132115	100	97	stimuli/plant2/fern/plant_fern09.jpg             	1	2	1	plant_fern09.jpg     	plant2   	7	fern      	14	fern09      	148	alive    	1	still	0	natural 	1	n	0	0        	 	0.0	0	156.95806590002	157.058056999929	0.0999910999089479
132265	100	98	stimuli/animals2/tiger/animal_tiger06.jpg        	1	2	1	animal_tiger06.jpg   	animals2 	1	tiger     	33	tiger06     	335	alive    	1	moves	1	natural 	1	n	0	0        	 	0.0	0	157.108066499932	157.208061499987	0.0999950000550598
132415	100	99	stimuli/nonmovArt/lock/nma_lock02.jpg            	1	2	1	nma_lock02.jpg       	nonmovArt	4	lock      	24	lock02      	241	not_alive	0	still	0	artefact	0	n	1	0        	 	0.0	0	157.258089200011	157.358064799919	0.0999755999073386
132565	100	100	stimuli/plant2/palmtree/plant_palmtree06.jpg     	1	2	1	plant_palmtree06.jpg 	plant2   	7	palmtree  	27	palmtree06  	275	alive    	1	still	0	natural 	1	n	0	0        	 	0.0	0	157.408073999919	157.508068199968	0.0999942000489682
132715	100	101	stimuli/nonmovArt/clothespeg/nma_clothespeg08.jpg	1	2	1	nma_clothespeg08.jpg 	nonmovArt	4	clothespeg	8	clothespeg08	87	not_alive	0	still	0	artefact	0	n	0	1        	a	0.391987500013784	1	157.558077899972	157.658073000028	0.0999951000558212
132865	100	102	stimuli/nonmovNat/shell/nmn_shell01.jpg          	1	2	1	nmn_shell01.jpg      	nonmovNat	5	shell     	32	shell01     	320	not_alive	0	still	0	natural 	1	n	0	0        	 	0.0	0	157.70808110002	157.808078099973	0.0999969999538735
133015	100	103	stimuli/plant2/lemontree/plant_lemontree09.jpg   	1	2	1	plant_lemontree09.jpg	plant2   	7	lemontree 	22	lemontree09 	228	alive    	1	still	0	natural 	1	n	0	0        	 	0.0	0	157.858086599968	157.958079700009	0.0999931000405922
133165	100	104	stimuli/nonmovNat/crystal/nmn_crystal10.jpg      	1	2	1	nmn_crystal10.jpg    	nonmovNat	5	crystal   	10	crystal10   	109	not_alive	0	still	0	natural 	1	n	0	0        	 	0.0	0	158.008091699914	158.108089299989	0.0999976000748575
133315	100	105	stimuli/movArt/boat/ma_boat10.jpg                	1	2	1	ma_boat10.jpg        	movArt   	2	boat      	2	boat10      	29	not_alive	0	moves	1	artefact	0	n	0	0        	 	0.0	0	158.158095699968	158.2580877	0.0999920000322163
133465	100	106	stimuli/nonmovNat/rock/nmn_rock07.jpg            	1	2	1	nmn_rock07.jpg       	nonmovNat	5	rock      	30	rock07      	306	not_alive	0	still	0	natural 	1	n	0	0        	 	0.0	0	158.308094899985	158.408090799931	0.0999958999454975
133615	100	107	stimuli/movNat/hotspring/mn_hotspring02.jpg      	1	2	1	mn_hotspring02.jpg   	movNat   	3	hotspring 	21	hotspring02 	211	not_alive	0	moves	1	natural 	1	n	0	0        	 	0.0	0	158.458101699944	158.558107899968	0.100006200023927
133765	100	108	stimuli/movArt/boat/ma_boat07.jpg                	1	2	1	ma_boat07.jpg        	movArt   	2	boat      	2	boat07      	26	not_alive	0	moves	1	artefact	0	n	0	0        	 	0.0	0	158.608105699997	158.708097799914	0.0999920999165624
133915	100	109	stimuli/movNat/fire/mn_fire04.jpg                	1	2	1	mn_fire04.jpg        	movNat   	3	fire      	15	fire04      	153	not_alive	0	moves	1	natural 	1	n	0	0        	 	0.0	0	158.75810779992	158.858128299937	0.100020500016399
134065	100	110	stimuli/movArt/car/ma_car10.jpg                  	1	2	1	ma_car10.jpg         	movArt   	2	car       	5	car10       	59	not_alive	0	moves	1	artefact	0	n	0	0        	 	0.0	0	158.908114799997	159.008104700013	0.0999899000162259
134215	100	111	stimuli/plant2/moss/plant_moss10.jpg             	1	2	1	plant_moss10.jpg     	plant2   	7	moss      	25	moss10      	259	alive    	1	still	0	natural 	1	n	0	0        	 	0.0	0	159.058115600026	159.158106899937	0.0999912999104708
134365	100	112	stimuli/movNat/waterfall/mn_waterfall06.jpg      	1	2	1	mn_waterfall06.jpg   	movNat   	3	waterfall 	37	waterfall06 	375	not_alive	0	moves	1	natural 	1	n	0	0        	 	0.0	0	159.208120599971	159.308116799919	0.0999961999477819
134515	100	113	stimuli/nonmovArt/headphones/nma_headphones09.jpg	1	2	1	nma_headphones09.jpg 	nonmovArt	4	headphones	18	headphones09	188	not_alive	0	still	0	artefact	0	n	0	0        	 	0.0	0	159.35812400002	159.458132499945	0.100008499925025
134665	100	114	stimuli/plant2/lemontree/plant_lemontree02.jpg   	1	2	1	plant_lemontree02.jpg	plant2   	7	lemontree 	22	lemontree02 	221	alive    	1	still	0	natural 	1	n	0	0        	 	0.0	0	159.50813229999	159.608143599937	0.100011299946345
134815	100	115	stimuli/movNat/fire/mn_fire03.jpg                	1	2	1	mn_fire03.jpg        	movNat   	3	fire      	15	fire03      	152	not_alive	0	moves	1	natural 	1	n	0	0        	 	0.0	0	159.658131400007	159.758127799956	0.0999963999493048
134965	100	116	stimuli/plant/cactus/plant_cactus10.jpg          	1	2	1	plant_cactus10.jpg   	plant    	6	cactus    	4	cactus10    	49	alive    	1	still	0	natural 	1	n	0	0        	 	0.0	0	159.808134399937	159.908129999996	0.0999956000596285
135115	100	117	stimuli/animals2/bee/animal_bee01.jpg            	1	2	1	animal_bee01.jpg     	animals2 	1	bee       	0	bee01       	0	alive    	1	moves	1	natural 	1	n	0	0        	 	0.0	0	159.958137399983	160.058131599915	0.0999941999325529
135265	100	118	stimuli/plant/cactus/plant_cactus01.jpg          	1	2	1	plant_cactus01.jpg   	plant    	6	cactus    	4	cactus01    	40	alive    	1	still	0	natural 	1	n	0	0        	 	0.0	0	160.108140599914	160.208153499989	0.100012900074944
135415	100	119	stimuli/animals2/whale/animal_whale03.jpg        	1	2	1	animal_whale03.jpg   	animals2 	1	whale     	39	whale03     	392	alive    	1	moves	1	natural 	1	n	0	0        	 	0.0	0	160.258147099987	160.358154400019	0.100007300032303
135565	100	120	stimuli/animals2/tiger/animal_tiger07.jpg        	1	2	1	animal_tiger07.jpg   	animals2 	1	tiger     	33	tiger07     	336	alive    	1	moves	1	natural 	1	n	0	0        	 	0.0	0	160.408163300017	160.508144099964	0.099980799946934
135715	100	121	stimuli/animals2/pigeon/animal_pigeon09.jpg      	1	2	1	animal_pigeon09.jpg  	animals2 	1	pigeon    	28	pigeon09    	288	alive    	1	moves	1	natural 	1	n	0	0        	 	0.0	0	160.558151899953	160.658145699999	0.0999938000459224
135865	100	122	stimuli/movNat/waterfall/mn_waterfall02.jpg      	1	2	1	mn_waterfall02.jpg   	movNat   	3	waterfall 	37	waterfall02 	371	not_alive	0	moves	1	natural 	1	n	0	0        	 	0.0	0	160.708183299983	160.808149899938	0.0999665999552235
136015	100	123	stimuli/animals2/whale/animal_whale03.jpg        	1	2	1	animal_whale03.jpg   	animals2 	1	whale     	39	whale03     	392	alive    	1	moves	1	natural 	1	n	0	0        	 	0.0	0	160.85816059995	160.95815979992	0.0999991999706253
136165	100	124	stimuli/animals2/whale/animal_whale09.jpg        	1	2	1	animal_whale09.jpg   	animals2 	1	whale     	39	whale09     	398	alive    	1	moves	1	natural 	1	n	0	0        	 	0.0	0	161.008164600004	161.10816189996	0.0999972999561578
136315	100	125	stimuli/animals/dog/animal_dog09.jpg             	1	2	1	animal_dog09.jpg     	animals  	0	dog       	11	dog09       	118	alive    	1	moves	1	natural 	1	n	0	0        	 	0.0	0	161.158181699924	161.258172599948	0.0999909000238404
136465	100	126	stimuli/nonmovArt/bench/nma_bench05.jpg          	1	2	1	nma_bench05.jpg      	nonmovArt	4	bench     	1	bench05     	14	not_alive	0	still	0	artefact	0	n	0	0        	 	0.0	0	161.308187499992	161.408164300025	0.0999768000328913
136615	100	127	stimuli/movNat/fire/mn_fire04.jpg                	1	2	1	mn_fire04.jpg        	movNat   	3	fire      	15	fire04      	153	not_alive	0	moves	1	natural 	1	n	0	0        	 	0.0	0	161.458203700022	161.558168199961	0.0999644999392331
136765	100	128	stimuli/movNat/fire/mn_fire07.jpg                	1	2	1	mn_fire07.jpg        	movNat   	3	fire      	15	fire07      	156	not_alive	0	moves	1	natural 	1	n	0	0        	 	0.0	0	161.608182399999	161.708174399915	0.099991999915801
136915	100	129	stimuli/animals2/whale/animal_whale05.jpg        	1	2	1	animal_whale05.jpg   	animals2 	1	whale     	39	whale05     	394	alive    	1	moves	1	natural 	1	n	0	0        	 	0.0	0	161.758183599915	161.858173399931	0.0999898000154644
137065	100	130	stimuli/nonmovArt/clothespeg/nma_clothespeg07.jpg	1	2	1	nma_clothespeg07.jpg 	nonmovArt	4	clothespeg	8	clothespeg07	86	not_alive	0	still	0	artefact	0	n	0	0        	 	0.0	0	161.90818639996	162.008179500001	0.0999931000405922
137215	100	131	stimuli/nonmovArt/lock/nma_lock08.jpg            	1	2	1	nma_lock08.jpg       	nonmovArt	4	lock      	24	lock08      	247	not_alive	0	still	0	artefact	0	n	0	0        	 	0.0	0	162.058196499944	162.158181799925	0.0999852999811992
137365	100	132	stimuli/movArt/bus/ma_bus08.jpg                  	1	2	1	ma_bus08.jpg         	movArt   	2	bus       	3	bus08       	37	not_alive	0	moves	1	artefact	0	n	0	0        	 	0.0	0	162.208205299918	162.30818990001	0.0999846000922844
137515	100	133	stimuli/animals2/lemur/animal_lemur01.jpg        	1	2	1	animal_lemur01.jpg   	animals2 	1	lemur     	23	lemur01     	230	alive    	1	moves	1	natural 	1	n	0	0        	 	0.0	0	162.358195499983	162.458189100027	0.0999936000443995
137665	100	134	stimuli/movNat/river/mn_river01.jpg              	1	2	1	mn_river01.jpg       	movNat   	3	river     	29	river01     	290	not_alive	0	moves	1	natural 	1	n	0	0        	 	0.0	0	162.508200499928	162.608193899971	0.0999934000428766
137815	100	135	stimuli/animals/eagle/animal_eagle07.jpg         	1	2	1	animal_eagle07.jpg   	animals  	0	eagle     	13	eagle07     	136	alive    	1	moves	1	natural 	1	n	1	0        	 	0.0	0	162.658204499981	162.758197600022	0.0999931000405922
137965	100	136	stimuli/nonmovArt/clothespeg/nma_clothespeg02.jpg	1	2	1	nma_clothespeg02.jpg 	nonmovArt	4	clothespeg	8	clothespeg02	81	not_alive	0	still	0	artefact	0	n	1	0        	 	0.0	0	162.808214399964	162.908201599959	0.0999871999956667
138115	100	137	stimuli/plant/grass/plant_grass05.jpg            	1	2	1	plant_grass05.jpg    	plant    	6	grass     	17	grass05     	174	alive    	1	still	0	natural 	1	n	0	1        	f	0.242003999999724	1	162.958211699966	163.058205800015	0.0999941000482068
138265	100	138	stimuli/movNat/river/mn_river05.jpg              	1	2	1	mn_river05.jpg       	movNat   	3	river     	29	river05     	294	not_alive	0	moves	1	natural 	1	n	1	0        	 	0.0	0	163.108337500016	163.208213299979	0.0998757999623194
138415	100	139	stimuli/plant/vine/plant_vine07.jpg              	1	2	1	plant_vine07.jpg     	plant    	6	vine      	36	vine07      	366	alive    	1	still	0	natural 	1	n	0	0        	 	0.0	0	163.25822399999	163.358217999921	0.09999399993103
138565	100	140	stimuli/plant2/moss/plant_moss08.jpg             	1	2	1	plant_moss08.jpg     	plant2   	7	moss      	25	moss08      	257	alive    	1	still	0	natural 	1	n	0	1        	f	0.404748699977063	1	163.40823089995	163.508215699927	0.099984799977392
138715	100	141	stimuli/plant/flower/plant_flower04.jpg          	1	2	1	plant_flower04.jpg   	plant    	6	flower    	16	flower04    	163	alive    	1	still	0	natural 	1	n	0	0        	 	0.0	0	163.558225599932	163.658230099943	0.100004500010982
138865	100	142	stimuli/movNat/waves/mn_waves07.jpg              	1	2	1	mn_waves07.jpg       	movNat   	3	waves     	38	waves07     	386	not_alive	0	moves	1	natural 	1	n	0	0        	 	0.0	0	163.708232200006	163.808228299953	0.0999960999470204
139015	100	143	stimuli/animals2/tiger/animal_tiger04.jpg        	1	2	1	animal_tiger04.jpg   	animals2 	1	tiger     	33	tiger04     	333	alive    	1	moves	1	natural 	1	n	0	0        	 	0.0	0	163.858233399922	163.958227699972	0.0999943000497296
139165	100	144	stimuli/plant2/palmtree/plant_palmtree06.jpg     	1	2	1	plant_palmtree06.jpg 	plant2   	7	palmtree  	27	palmtree06  	275	alive    	1	still	0	natural 	1	n	0	0        	 	0.0	0	164.00823929999	164.108231200022	0.0999919000314549
139315	100	145	stimuli/plant2/clover/plant_clover06.jpg         	1	2	1	plant_clover06.jpg   	plant2   	7	clover    	9	clover06    	95	alive    	1	still	0	natural 	1	n	0	0        	 	0.0	0	164.158242099918	164.258234799956	0.0999927000375465
139465	100	146	stimuli/movNat/hotspring/mn_hotspring07.jpg      	1	2	1	mn_hotspring07.jpg   	movNat   	3	hotspring 	21	hotspring07 	216	not_alive	0	moves	1	natural 	1	n	0	0        	 	0.0	0	164.308245599968	164.408266699989	0.100021100020967
139615	100	147	stimuli/nonmovNat/cliff/nmn_cliff06.jpg          	1	2	1	nmn_cliff06.jpg      	nonmovNat	5	cliff     	7	cliff06     	75	not_alive	0	still	0	natural 	1	n	0	0        	 	0.0	0	164.458250699914	164.558242499945	0.0999918000306934
139765	100	148	stimuli/movArt/bus/ma_bus05.jpg                  	1	2	1	ma_bus05.jpg         	movArt   	2	bus       	3	bus05       	34	not_alive	0	moves	1	artefact	0	n	0	0        	 	0.0	0	164.608252199949	164.708245699992	0.099993500043638
139915	100	149	stimuli/movArt/train/ma_train06.jpg              	1	2	1	ma_train06.jpg       	movArt   	2	train     	34	train06     	345	not_alive	0	moves	1	artefact	0	n	0	0        	 	0.0	0	164.758255499997	164.858250499936	0.0999949999386445
140065	100	150	stimuli/movArt/car/ma_car04.jpg                  	1	2	1	ma_car04.jpg         	movArt   	2	car       	5	car04       	53	not_alive	0	moves	1	artefact	0	n	0	0        	 	0.0	0	164.908263199963	165.008254399989	0.0999912000261247
140215	100	151	stimuli/nonmovArt/headphones/nma_headphones04.jpg	1	2	1	nma_headphones04.jpg 	nonmovArt	4	headphones	18	headphones04	183	not_alive	0	still	0	artefact	0	n	0	0        	 	0.0	0	165.058266700013	165.158285600017	0.100018900004216
140365	100	152	stimuli/animals/horse/animal_horse01.jpg         	1	2	1	animal_horse01.jpg   	animals  	0	horse     	20	horse01     	200	alive    	1	moves	1	natural 	1	n	0	0        	 	0.0	0	165.208264400018	165.308265	0.100000599981286
140515	100	153	stimuli/nonmovArt/lock/nma_lock03.jpg            	1	2	1	nma_lock03.jpg       	nonmovArt	4	lock      	24	lock03      	242	not_alive	0	still	0	artefact	0	n	0	0        	 	0.0	0	165.358268499956	165.458263700013	0.0999952000565827
140665	100	154	stimuli/movArt/helicopter/ma_helicopter04.jpg    	1	2	1	ma_helicopter04.jpg  	movArt   	2	helicopter	19	helicopter04	193	not_alive	0	moves	1	artefact	0	n	0	0        	 	0.0	0	165.508273100015	165.608271799982	0.0999986999668181
140815	100	155	stimuli/movNat/fire/mn_fire10.jpg                	1	2	1	mn_fire10.jpg        	movNat   	3	fire      	15	fire10      	159	not_alive	0	moves	1	natural 	1	n	0	0        	 	0.0	0	165.658276599948	165.758300099988	0.100023500039242
140965	100	156	stimuli/plant2/clover/plant_clover07.jpg         	1	2	1	plant_clover07.jpg   	plant2   	7	clover    	9	clover07    	96	alive    	1	still	0	natural 	1	n	0	0        	 	0.0	0	165.808279599994	165.908291799948	0.100012199953198
141115	100	157	stimuli/movNat/river/mn_river09.jpg              	1	2	1	mn_river09.jpg       	movNat   	3	river     	29	river09     	298	not_alive	0	moves	1	natural 	1	n	0	0        	 	0.0	0	165.958285899949	166.058278599987	0.0999927000375465
141265	100	158	stimuli/plant2/clover/plant_clover03.jpg         	1	2	1	plant_clover03.jpg   	plant2   	7	clover    	9	clover03    	92	alive    	1	still	0	natural 	1	n	0	0        	 	0.0	0	166.108291800017	166.208284799941	0.0999929999234155
141415	100	159	stimuli/animals/dolphin/animal_dolphin01.jpg     	1	2	1	animal_dolphin01.jpg 	animals  	0	dolphin   	12	dolphin01   	120	alive    	1	moves	1	natural 	1	n	0	0        	 	0.0	0	166.258296899963	166.358293699916	0.0999967999523506
144332	100	160	stimuli/nonmovNat/cliff/nmn_cliff04.jpg          	1	3	1	nmn_cliff04.jpg      	nonmovNat	5	cliff     	7	cliff04     	73	not_alive	0	still	0	natural 	1	n	0	0        	 	0.0	0	169.175036599976	169.275024299975	0.099987699999474
144482	100	161	stimuli/nonmovArt/headphones/nma_headphones04.jpg	1	3	1	nma_headphones04.jpg 	nonmovArt	4	headphones	18	headphones04	183	not_alive	0	still	0	artefact	0	n	0	0        	 	0.0	0	169.325028899941	169.425022799987	0.0999939000466838
144632	100	162	stimuli/plant/vine/plant_vine03.jpg              	1	3	1	plant_vine03.jpg     	plant    	6	vine      	36	vine03      	362	alive    	1	still	0	natural 	1	n	0	0        	 	0.0	0	169.475031899987	169.575025799917	0.0999938999302685
144782	100	163	stimuli/plant/cactus/plant_cactus05.jpg          	1	3	1	plant_cactus05.jpg   	plant    	6	cactus    	4	cactus05    	44	alive    	1	still	0	natural 	1	n	0	0        	 	0.0	0	169.625035499921	169.725058199954	0.100022700033151
144932	100	164	stimuli/plant/flower/plant_flower02.jpg          	1	3	1	plant_flower02.jpg   	plant    	6	flower    	16	flower02    	161	alive    	1	still	0	natural 	1	n	0	0        	 	0.0	0	169.775039699976	169.8750306	0.0999909000238404
145082	100	165	stimuli/nonmovNat/crystal/nmn_crystal08.jpg      	1	3	1	nmn_crystal08.jpg    	nonmovNat	5	crystal   	10	crystal08   	107	not_alive	0	still	0	natural 	1	n	0	0        	 	0.0	0	169.925042000017	170.025036899955	0.099994899937883
145232	100	166	stimuli/nonmovNat/crystal/nmn_crystal09.jpg      	1	3	1	nmn_crystal09.jpg    	nonmovNat	5	crystal   	10	crystal09   	108	not_alive	0	still	0	natural 	1	n	0	0        	 	0.0	0	170.075047299964	170.175041500013	0.0999942000489682
145382	100	167	stimuli/nonmovArt/lock/nma_lock10.jpg            	1	3	1	nma_lock10.jpg       	nonmovArt	4	lock      	24	lock10      	249	not_alive	0	still	0	artefact	0	n	0	0        	 	0.0	0	170.225049600005	170.325058799936	0.100009199930355
145532	100	168	stimuli/plant/flower/plant_flower09.jpg          	1	3	1	plant_flower09.jpg   	plant    	6	flower    	16	flower09    	168	alive    	1	still	0	natural 	1	n	0	0        	 	0.0	0	170.375054899952	170.475059799966	0.100004900014028
145682	100	169	stimuli/plant2/moss/plant_moss06.jpg             	1	3	1	plant_moss06.jpg     	plant2   	7	moss      	25	moss06      	255	alive    	1	still	0	natural 	1	n	0	0        	 	0.0	0	170.525063399924	170.625051199924	0.0999878000002354
145832	100	170	stimuli/plant/grass/plant_grass05.jpg            	1	3	1	plant_grass05.jpg    	plant    	6	grass     	17	grass05     	174	alive    	1	still	0	natural 	1	n	0	0        	 	0.0	0	170.675061799935	170.775053399964	0.0999916000291705
145982	100	171	stimuli/animals/eagle/animal_eagle02.jpg         	1	3	1	animal_eagle02.jpg   	animals  	0	eagle     	13	eagle02     	131	alive    	1	moves	1	natural 	1	n	0	0        	 	0.0	0	170.825079999981	170.925058300025	0.0999783000443131
146132	100	172	stimuli/animals2/pigeon/animal_pigeon07.jpg      	1	3	1	animal_pigeon07.jpg  	animals2 	1	pigeon    	28	pigeon07    	286	alive    	1	moves	1	natural 	1	n	0	0        	 	0.0	0	170.975069899927	171.07507469994	0.100004800013267
146282	100	173	stimuli/animals/horse/animal_horse03.jpg         	1	3	1	animal_horse03.jpg   	animals  	0	horse     	20	horse03     	202	alive    	1	moves	1	natural 	1	n	0	0        	 	0.0	0	171.125074399984	171.225072599947	0.0999981999630108
146432	100	174	stimuli/plant/cactus/plant_cactus02.jpg          	1	3	1	plant_cactus02.jpg   	plant    	6	cactus    	4	cactus02    	41	alive    	1	still	0	natural 	1	n	0	0        	 	0.0	0	171.275077999919	171.375070599956	0.099992600036785
146582	100	175	stimuli/nonmovNat/shell/nmn_shell08.jpg          	1	3	1	nmn_shell08.jpg      	nonmovNat	5	shell     	32	shell08     	327	not_alive	0	still	0	natural 	1	n	0	0        	 	0.0	0	171.425079499953	171.525074000005	0.0999945000512525
146732	100	176	stimuli/nonmovNat/sand/nmn_sand03.jpg            	1	3	1	nmn_sand03.jpg       	nonmovNat	5	sand      	31	sand03      	312	not_alive	0	still	0	natural 	1	n	0	0        	 	0.0	0	171.575110099977	171.675077399937	0.0999672999605536
146882	100	177	stimuli/plant2/palmtree/plant_palmtree08.jpg     	1	3	1	plant_palmtree08.jpg 	plant2   	7	palmtree  	27	palmtree08  	277	alive    	1	still	0	natural 	1	n	1	0        	 	0.0	0	171.725088899955	171.825084600016	0.0999957000603899
147032	100	178	stimuli/movArt/train/ma_train01.jpg              	1	3	1	ma_train01.jpg       	movArt   	2	train     	34	train01     	340	not_alive	0	moves	1	artefact	0	n	0	0        	 	0.0	0	171.875089599984	171.975086599938	0.0999969999538735
147182	100	179	stimuli/plant2/fern/plant_fern06.jpg             	1	3	1	plant_fern06.jpg     	plant2   	7	fern      	14	fern06      	145	alive    	1	still	0	natural 	1	n	0	0        	 	0.0	0	172.025107799913	172.125088999979	0.0999812000663951
147332	100	180	stimuli/animals2/lemur/animal_lemur09.jpg        	1	3	1	animal_lemur09.jpg   	animals2 	1	lemur     	23	lemur09     	238	alive    	1	moves	1	natural 	1	n	0	0        	 	0.0	0	172.175121099921	172.275092699914	0.099971599993296
147482	100	181	stimuli/nonmovArt/bench/nma_bench06.jpg          	1	3	1	nma_bench06.jpg      	nonmovArt	4	bench     	1	bench06     	15	not_alive	0	still	0	artefact	0	n	0	0        	 	0.0	0	172.325127799995	172.425093199941	0.0999653999460861
147632	100	182	stimuli/nonmovNat/sand/nmn_sand08.jpg            	1	3	1	nmn_sand08.jpg       	nonmovNat	5	sand      	31	sand08      	317	not_alive	0	still	0	natural 	1	n	0	0        	 	0.0	0	172.475107999984	172.575101100025	0.0999931000405922
147782	100	183	stimuli/movArt/boat/ma_boat02.jpg                	1	3	1	ma_boat02.jpg        	movArt   	2	boat      	2	boat02      	21	not_alive	0	moves	1	artefact	0	n	0	0        	 	0.0	0	172.625110300025	172.725101699936	0.0999913999112323
147932	100	184	stimuli/nonmovNat/rock/nmn_rock06.jpg            	1	3	1	nmn_rock06.jpg       	nonmovNat	5	rock      	30	rock06      	305	not_alive	0	still	0	natural 	1	n	0	0        	 	0.0	0	172.775114199962	172.875106499996	0.0999923000345007
148082	100	185	stimuli/movArt/car/ma_car05.jpg                  	1	3	1	ma_car05.jpg         	movArt   	2	car       	5	car05       	54	not_alive	0	moves	1	artefact	0	n	0	0        	 	0.0	0	172.925131900003	173.025110899936	0.0999789999332279
148232	100	186	stimuli/plant2/palmtree/plant_palmtree09.jpg     	1	3	1	plant_palmtree09.jpg 	plant2   	7	palmtree  	27	palmtree09  	278	alive    	1	still	0	natural 	1	n	1	0        	 	0.0	0	173.075125399977	173.175115099992	0.099989700014703
148382	100	187	stimuli/movArt/boat/ma_boat06.jpg                	1	3	1	ma_boat06.jpg        	movArt   	2	boat      	2	boat06      	25	not_alive	0	moves	1	artefact	0	n	0	0        	 	0.0	0	173.225124799996	173.325119699934	0.099994899937883
148532	100	188	stimuli/animals/dolphin/animal_dolphin01.jpg     	1	3	1	animal_dolphin01.jpg 	animals  	0	dolphin   	12	dolphin01   	120	alive    	1	moves	1	natural 	1	n	0	1        	f	0.391979199950583	1	173.375126999919	173.475126900012	0.0999999000923708
148682	100	189	stimuli/nonmovArt/mug/nma_mug08.jpg              	1	3	1	nma_mug08.jpg        	nonmovArt	4	mug       	26	mug08       	267	not_alive	0	still	0	artefact	0	n	0	0        	 	0.0	0	173.525132599985	173.625125500024	0.0999929000390694
148832	100	190	stimuli/plant/cactus/plant_cactus05.jpg          	1	3	1	plant_cactus05.jpg   	plant    	6	cactus    	4	cactus05    	44	alive    	1	still	0	natural 	1	n	0	0        	 	0.0	0	173.675138099934	173.775129499962	0.0999914000276476
148982	100	191	stimuli/animals/cat/animal_cat03.jpg             	1	3	1	animal_cat03.jpg     	animals  	0	cat       	6	cat03       	62	alive    	1	moves	1	natural 	1	n	0	0        	 	0.0	0	173.825138299959	173.925132600009	0.0999943000497296
149132	100	192	stimuli/movNat/waterfall/mn_waterfall01.jpg      	1	3	1	mn_waterfall01.jpg   	movNat   	3	waterfall 	37	waterfall01 	370	not_alive	0	moves	1	natural 	1	n	0	0        	 	0.0	0	173.975145199918	174.075135299936	0.0999901000177488
149282	100	193	stimuli/animals2/pigeon/animal_pigeon05.jpg      	1	3	1	animal_pigeon05.jpg  	animals2 	1	pigeon    	28	pigeon05    	284	alive    	1	moves	1	natural 	1	n	0	0        	 	0.0	0	174.125147999963	174.225139699993	0.099991700029932
149432	100	194	stimuli/plant/grass/plant_grass02.jpg            	1	3	1	plant_grass02.jpg    	plant    	6	grass     	17	grass02     	171	alive    	1	still	0	natural 	1	n	0	0        	 	0.0	0	174.275150000001	174.375142499921	0.0999924999196082
149582	100	195	stimuli/animals/eagle/animal_eagle07.jpg         	1	3	1	animal_eagle07.jpg   	animals  	0	eagle     	13	eagle07     	136	alive    	1	moves	1	natural 	1	n	0	0        	 	0.0	0	174.425154099939	174.525168200023	0.100014100084081
149732	100	196	stimuli/animals/dolphin/animal_dolphin09.jpg     	1	3	1	animal_dolphin09.jpg 	animals  	0	dolphin   	12	dolphin09   	128	alive    	1	moves	1	natural 	1	n	0	0        	 	0.0	0	174.575158299995	174.67515289993	0.0999945999355987
149882	100	197	stimuli/animals2/tiger/animal_tiger10.jpg        	1	3	1	animal_tiger10.jpg   	animals2 	1	tiger     	33	tiger10     	339	alive    	1	moves	1	natural 	1	n	0	0        	 	0.0	0	174.725162599934	174.825155199971	0.099992600036785
150032	100	198	stimuli/movArt/train/ma_train01.jpg              	1	3	1	ma_train01.jpg       	movArt   	2	train     	34	train01     	340	not_alive	0	moves	1	artefact	0	n	0	1        	f	0.0	0	174.875166099984	174.975158500019	0.0999924000352621
150182	100	199	stimuli/plant/vine/plant_vine09.jpg              	1	3	1	plant_vine09.jpg     	plant    	6	vine      	36	vine09      	368	alive    	1	still	0	natural 	1	n	0	0        	 	0.0	0	175.025168200023	175.125161199947	0.0999929999234155
150332	100	200	stimuli/movArt/boat/ma_boat08.jpg                	1	3	1	ma_boat08.jpg        	movArt   	2	boat      	2	boat08      	27	not_alive	0	moves	1	artefact	0	n	0	0        	 	0.0	0	175.175171699957	175.275192099973	0.100020400015637
150482	100	201	stimuli/plant2/lemontree/plant_lemontree04.jpg   	1	3	1	plant_lemontree04.jpg	plant2   	7	lemontree 	22	lemontree04 	223	alive    	1	still	0	natural 	1	n	0	0        	 	0.0	0	175.325175500009	175.425171499955	0.099995999946259
150632	100	202	stimuli/animals2/bee/animal_bee07.jpg            	1	3	1	animal_bee07.jpg     	animals2 	1	bee       	0	bee07       	6	alive    	1	moves	1	natural 	1	n	0	0        	 	0.0	0	175.475178899942	175.575173799996	0.0999949000542983
150782	100	203	stimuli/plant2/lemontree/plant_lemontree10.jpg   	1	3	1	plant_lemontree10.jpg	plant2   	7	lemontree 	22	lemontree10 	229	alive    	1	still	0	natural 	1	n	0	0        	 	0.0	0	175.625183099997	175.725177799934	0.0999946999363601
150932	100	204	stimuli/movArt/bus/ma_bus02.jpg                  	1	3	1	ma_bus02.jpg         	movArt   	2	bus       	3	bus02       	31	not_alive	0	moves	1	artefact	0	n	0	0        	 	0.0	0	175.775190899963	175.875196599984	0.10000570002012
151082	100	205	stimuli/movNat/hotspring/mn_hotspring06.jpg      	1	3	1	mn_hotspring06.jpg   	movNat   	3	hotspring 	21	hotspring06 	215	not_alive	0	moves	1	natural 	1	n	0	0        	 	0.0	0	175.925188299967	176.025197500014	0.10000920004677
151232	100	206	stimuli/animals/cat/animal_cat07.jpg             	1	3	1	animal_cat07.jpg     	animals  	0	cat       	6	cat07       	66	alive    	1	moves	1	natural 	1	n	0	0        	 	0.0	0	176.075194799923	176.175188499968	0.099993700045161
151382	100	207	stimuli/animals2/bee/animal_bee05.jpg            	1	3	1	animal_bee05.jpg     	animals2 	1	bee       	0	bee05       	4	alive    	1	moves	1	natural 	1	n	0	0        	 	0.0	0	176.225200699992	176.325189900002	0.0999892000108957
151532	100	208	stimuli/nonmovNat/cliff/nmn_cliff09.jpg          	1	3	1	nmn_cliff09.jpg      	nonmovNat	5	cliff     	7	cliff09     	78	not_alive	0	still	0	natural 	1	n	0	0        	 	0.0	0	176.375210799975	176.475195799954	0.0999849999789149
151682	100	209	stimuli/animals/cat/animal_cat07.jpg             	1	3	1	animal_cat07.jpg     	animals  	0	cat       	6	cat07       	66	alive    	1	moves	1	natural 	1	n	0	0        	 	0.0	0	176.525204999954	176.625218899921	0.100013899966143
151832	100	210	stimuli/plant2/fern/plant_fern07.jpg             	1	3	1	plant_fern07.jpg     	plant2   	7	fern      	14	fern07      	146	alive    	1	still	0	natural 	1	n	0	0        	 	0.0	0	176.675210000016	176.775215499918	0.100005499902181
151982	100	211	stimuli/nonmovNat/shell/nmn_shell01.jpg          	1	3	1	nmn_shell01.jpg      	nonmovNat	5	shell     	32	shell01     	320	not_alive	0	still	0	natural 	1	n	0	0        	 	0.0	0	176.825215199962	176.92520930001	0.0999941000482068
152132	100	212	stimuli/animals2/bee/animal_bee07.jpg            	1	3	1	animal_bee07.jpg     	animals2 	1	bee       	0	bee07       	6	alive    	1	moves	1	natural 	1	n	0	0        	 	0.0	0	176.975216099992	177.075209199917	0.0999930999241769
152282	100	213	stimuli/nonmovNat/crystal/nmn_crystal05.jpg      	1	3	1	nmn_crystal05.jpg    	nonmovNat	5	crystal   	10	crystal05   	104	not_alive	0	still	0	natural 	1	n	0	0        	 	0.0	0	177.125248799915	177.225214399979	0.0999656000640243
152432	100	214	stimuli/plant2/lemontree/plant_lemontree09.jpg   	1	3	1	plant_lemontree09.jpg	plant2   	7	lemontree 	22	lemontree09 	228	alive    	1	still	0	natural 	1	n	0	0        	 	0.0	0	177.275226400001	177.375225899974	0.0999994999729097
152582	100	215	stimuli/plant2/moss/plant_moss06.jpg             	1	3	1	plant_moss06.jpg     	plant2   	7	moss      	25	moss06      	255	alive    	1	still	0	natural 	1	n	0	0        	 	0.0	0	177.425229499931	177.525221299962	0.0999918000306934
152732	100	216	stimuli/movNat/waterfall/mn_waterfall05.jpg      	1	3	1	mn_waterfall05.jpg   	movNat   	3	waterfall 	37	waterfall05 	374	not_alive	0	moves	1	natural 	1	n	0	0        	 	0.0	0	177.575231299968	177.675223400001	0.0999921000329778
152882	100	217	stimuli/nonmovNat/shell/nmn_shell05.jpg          	1	3	1	nmn_shell05.jpg      	nonmovNat	5	shell     	32	shell05     	324	not_alive	0	still	0	natural 	1	n	0	0        	 	0.0	0	177.725251200027	177.825251000002	0.099999799975194
153032	100	218	stimuli/nonmovArt/mug/nma_mug09.jpg              	1	3	1	nma_mug09.jpg        	nonmovArt	4	mug       	26	mug09       	268	not_alive	0	still	0	artefact	0	n	0	0        	 	0.0	0	177.875251099933	177.975287799956	0.100036700023338
153182	100	219	stimuli/movArt/helicopter/ma_helicopter02.jpg    	1	3	1	ma_helicopter02.jpg  	movArt   	2	helicopter	19	helicopter02	191	not_alive	0	moves	1	artefact	0	n	0	0        	 	0.0	0	178.025248799939	178.125237899949	0.0999891000101343
153332	100	220	stimuli/nonmovArt/bench/nma_bench08.jpg          	1	3	1	nma_bench08.jpg      	nonmovArt	4	bench     	1	bench08     	17	not_alive	0	still	0	artefact	0	n	0	0        	 	0.0	0	178.175249299966	178.275245799916	0.0999964999500662
153482	100	221	stimuli/movNat/waves/mn_waves02.jpg              	1	3	1	mn_waves02.jpg       	movNat   	3	waves     	38	waves02     	381	not_alive	0	moves	1	natural 	1	n	0	0        	 	0.0	0	178.325256999931	178.42524979997	0.0999928000383079
153632	100	222	stimuli/plant2/fern/plant_fern01.jpg             	1	3	1	plant_fern01.jpg     	plant2   	7	fern      	14	fern01      	140	alive    	1	still	0	natural 	1	n	0	0        	 	0.0	0	178.475278700003	178.575255899923	0.0999771999195218
153782	100	223	stimuli/nonmovNat/rock/nmn_rock09.jpg            	1	3	1	nmn_rock09.jpg       	nonmovNat	5	rock      	30	rock09      	308	not_alive	0	still	0	natural 	1	n	0	0        	 	0.0	0	178.625276000006	178.725256199948	0.0999801999423653
153932	100	224	stimuli/movArt/car/ma_car09.jpg                  	1	3	1	ma_car09.jpg         	movArt   	2	car       	5	car09       	58	not_alive	0	moves	1	artefact	0	n	0	0        	 	0.0	0	178.775266199955	178.875261500012	0.0999953000573441
154082	100	225	stimuli/plant/tree/plant_tree03.jpg              	1	3	1	plant_tree03.jpg     	plant    	6	tree      	35	tree03      	352	alive    	1	still	0	natural 	1	n	0	0        	 	0.0	0	178.925270100008	179.025269099977	0.0999989999691024
154232	100	226	stimuli/movArt/helicopter/ma_helicopter03.jpg    	1	3	1	ma_helicopter03.jpg  	movArt   	2	helicopter	19	helicopter03	192	not_alive	0	moves	1	artefact	0	n	0	0        	 	0.0	0	179.075273599941	179.17526769999	0.0999941000482068
154382	100	227	stimuli/nonmovArt/headphones/nma_headphones09.jpg	1	3	1	nma_headphones09.jpg 	nonmovArt	4	headphones	18	headphones09	188	not_alive	0	still	0	artefact	0	n	0	0        	 	0.0	0	179.225282299914	179.325271199923	0.0999889000086114
154532	100	228	stimuli/movNat/waves/mn_waves05.jpg              	1	3	1	mn_waves05.jpg       	movNat   	3	waves     	38	waves05     	384	not_alive	0	moves	1	natural 	1	n	0	0        	 	0.0	0	179.375293700024	179.47527699999	0.0999832999659702
154682	100	229	stimuli/animals/dog/animal_dog03.jpg             	1	3	1	animal_dog03.jpg     	animals  	0	dog       	11	dog03       	112	alive    	1	moves	1	natural 	1	n	0	0        	 	0.0	0	179.525284999982	179.625278500025	0.099993500043638
154832	100	230	stimuli/movNat/hotspring/mn_hotspring10.jpg      	1	3	1	mn_hotspring10.jpg   	movNat   	3	hotspring 	21	hotspring10 	219	not_alive	0	moves	1	natural 	1	n	0	0        	 	0.0	0	179.67529039993	179.775283399969	0.0999930000398308
154982	100	231	stimuli/animals2/lemur/animal_lemur02.jpg        	1	3	1	animal_lemur02.jpg   	animals2 	1	lemur     	23	lemur02     	231	alive    	1	moves	1	natural 	1	n	0	0        	 	0.0	0	179.825291599962	179.925286600017	0.0999950000550598
155132	100	232	stimuli/plant/tree/plant_tree04.jpg              	1	3	1	plant_tree04.jpg     	plant    	6	tree      	35	tree04      	353	alive    	1	still	0	natural 	1	n	0	0        	 	0.0	0	179.975302999956	180.075290999957	0.0999880000017583
155282	100	233	stimuli/nonmovArt/clothespeg/nma_clothespeg09.jpg	1	3	1	nma_clothespeg09.jpg 	nonmovArt	4	clothespeg	8	clothespeg09	88	not_alive	0	still	0	artefact	0	n	0	0        	 	0.0	0	180.125303399982	180.225294000004	0.099990600021556
155432	100	234	stimuli/nonmovArt/mug/nma_mug02.jpg              	1	3	1	nma_mug02.jpg        	nonmovArt	4	mug       	26	mug02       	261	not_alive	0	still	0	artefact	0	n	0	0        	 	0.0	0	180.275306300027	180.375298699946	0.0999923999188468
155582	100	235	stimuli/nonmovNat/rock/nmn_rock09.jpg            	1	3	1	nmn_rock09.jpg       	nonmovNat	5	rock      	30	rock09      	308	not_alive	0	still	0	natural 	1	n	0	0        	 	0.0	0	180.425305599929	180.525300599984	0.0999950000550598
155732	100	236	stimuli/animals/horse/animal_horse10.jpg         	1	3	1	animal_horse10.jpg   	animals  	0	horse     	20	horse10     	209	alive    	1	moves	1	natural 	1	n	0	0        	 	0.0	0	180.575311299996	180.675303699914	0.0999923999188468
155882	100	237	stimuli/animals/dog/animal_dog01.jpg             	1	3	1	animal_dog01.jpg     	animals  	0	dog       	11	dog01       	110	alive    	1	moves	1	natural 	1	n	0	0        	 	0.0	0	180.72531619994	180.825337899965	0.100021700025536
156032	100	238	stimuli/nonmovNat/sand/nmn_sand01.jpg            	1	3	1	nmn_sand01.jpg       	nonmovNat	5	sand      	31	sand01      	310	not_alive	0	still	0	natural 	1	n	0	0        	 	0.0	0	180.875318599981	180.975313999923	0.0999953999416903
156182	100	239	stimuli/plant/tree/plant_tree02.jpg              	1	3	1	plant_tree02.jpg     	plant    	6	tree      	35	tree02      	351	alive    	1	still	0	natural 	1	n	0	0        	 	0.0	0	181.025324399932	181.125316099962	0.099991700029932
158999	100	240	stimuli/nonmovArt/bench/nma_bench04.jpg          	1	4	1	nma_bench04.jpg      	nonmovArt	4	bench     	1	bench04     	13	not_alive	0	still	0	artefact	0	n	0	0        	 	0.0	0	183.842061799951	183.942058000015	0.0999962000641972
159149	100	241	stimuli/animals/eagle/animal_eagle04.jpg         	1	4	1	animal_eagle04.jpg   	animals  	0	eagle     	13	eagle04     	133	alive    	1	moves	1	natural 	1	n	0	0        	 	0.0	0	183.992064599996	184.092054800014	0.0999902000185102
159299	100	242	stimuli/animals/dolphin/animal_dolphin07.jpg     	1	4	1	animal_dolphin07.jpg 	animals  	0	dolphin   	12	dolphin07   	126	alive    	1	moves	1	natural 	1	n	0	0        	 	0.0	0	184.142065600026	184.242060599965	0.0999949999386445
159449	100	243	stimuli/plant/grass/plant_grass03.jpg            	1	4	1	plant_grass03.jpg    	plant    	6	grass     	17	grass03     	172	alive    	1	still	0	natural 	1	n	0	0        	 	0.0	0	184.292068899958	184.392072399962	0.100003500003368
159599	100	244	stimuli/plant/cactus/plant_cactus04.jpg          	1	4	1	plant_cactus04.jpg   	plant    	6	cactus    	4	cactus04    	43	alive    	1	still	0	natural 	1	n	0	0        	 	0.0	0	184.442072900012	184.542066199938	0.0999932999256998
159749	100	245	stimuli/plant2/clover/plant_clover01.jpg         	1	4	1	plant_clover01.jpg   	plant2   	7	clover    	9	clover01    	90	alive    	1	still	0	natural 	1	n	0	0        	 	0.0	0	184.592077499954	184.692073300015	0.0999958000611514
159899	100	246	stimuli/movNat/hotspring/mn_hotspring08.jpg      	1	4	1	mn_hotspring08.jpg   	movNat   	3	hotspring 	21	hotspring08 	217	not_alive	0	moves	1	natural 	1	n	0	0        	 	0.0	0	184.742079099989	184.842076399946	0.0999972999561578
160049	100	247	stimuli/plant2/lemontree/plant_lemontree03.jpg   	1	4	1	plant_lemontree03.jpg	plant2   	7	lemontree 	22	lemontree03 	222	alive    	1	still	0	natural 	1	n	0	0        	 	0.0	0	184.892082299921	184.992077299976	0.0999950000550598
160199	100	248	stimuli/animals2/whale/animal_whale08.jpg        	1	4	1	animal_whale08.jpg   	animals2 	1	whale     	39	whale08     	397	alive    	1	moves	1	natural 	1	n	0	0        	 	0.0	0	185.042087699985	185.142112699919	0.100024999934249
160349	100	249	stimuli/plant2/moss/plant_moss05.jpg             	1	4	1	plant_moss05.jpg     	plant2   	7	moss      	25	moss05      	254	alive    	1	still	0	natural 	1	n	0	0        	 	0.0	0	185.192093199934	185.292088599992	0.0999954000581056
160499	100	250	stimuli/nonmovArt/mug/nma_mug10.jpg              	1	4	1	nma_mug10.jpg        	nonmovArt	4	mug       	26	mug10       	269	not_alive	0	still	0	artefact	0	n	0	0        	 	0.0	0	185.342096899985	185.442090299912	0.0999933999264613
160649	100	251	stimuli/animals/dolphin/animal_dolphin07.jpg     	1	4	1	animal_dolphin07.jpg 	animals  	0	dolphin   	12	dolphin07   	126	alive    	1	moves	1	natural 	1	n	0	0        	 	0.0	0	185.492098200018	185.592094399966	0.0999961999477819
160799	100	252	stimuli/movNat/waves/mn_waves08.jpg              	1	4	1	mn_waves08.jpg       	movNat   	3	waves     	38	waves08     	387	not_alive	0	moves	1	natural 	1	n	0	0        	 	0.0	0	185.642097999924	185.742116599926	0.100018600001931
160949	100	253	stimuli/movNat/hotspring/mn_hotspring01.jpg      	1	4	1	mn_hotspring01.jpg   	movNat   	3	hotspring 	21	hotspring01 	210	not_alive	0	moves	1	natural 	1	n	0	0        	 	0.0	0	185.792108200025	185.892129899934	0.100021699909121
161099	100	254	stimuli/plant/flower/plant_flower07.jpg          	1	4	1	plant_flower07.jpg   	plant    	6	flower    	16	flower07    	166	alive    	1	still	0	natural 	1	n	0	0        	 	0.0	0	185.942108499934	186.042103799991	0.0999953000573441
161249	100	255	stimuli/animals/horse/animal_horse05.jpg         	1	4	1	animal_horse05.jpg   	animals  	0	horse     	20	horse05     	204	alive    	1	moves	1	natural 	1	n	0	0        	 	0.0	0	186.092113999999	186.192105799913	0.0999917999142781
161399	100	256	stimuli/plant/flower/plant_flower07.jpg          	1	4	1	plant_flower07.jpg   	plant    	6	flower    	16	flower07    	166	alive    	1	still	0	natural 	1	n	0	0        	 	0.0	0	186.24212900002	186.342110699974	0.099981699953787
161549	100	257	stimuli/plant/tree/plant_tree02.jpg              	1	4	1	plant_tree02.jpg     	plant    	6	tree      	35	tree02      	351	alive    	1	still	0	natural 	1	n	0	0        	 	0.0	0	186.392123500002	186.492133499938	0.100009999936447
161699	100	258	stimuli/plant/grass/plant_grass04.jpg            	1	4	1	plant_grass04.jpg    	plant    	6	grass     	17	grass04     	173	alive    	1	still	0	natural 	1	n	0	0        	 	0.0	0	186.542124299915	186.642128799926	0.100004500010982
161849	100	259	stimuli/plant/vine/plant_vine09.jpg              	1	4	1	plant_vine09.jpg     	plant    	6	vine      	36	vine09      	368	alive    	1	still	0	natural 	1	n	0	0        	 	0.0	0	186.692128099967	186.792121100007	0.0999930000398308
161999	100	260	stimuli/movArt/car/ma_car03.jpg                  	1	4	1	ma_car03.jpg         	movArt   	2	car       	5	car03       	52	not_alive	0	moves	1	artefact	0	n	0	0        	 	0.0	0	186.842132100021	186.942127099959	0.0999949999386445
162149	100	261	stimuli/nonmovArt/clothespeg/nma_clothespeg08.jpg	1	4	1	nma_clothespeg08.jpg 	nonmovArt	4	clothespeg	8	clothespeg08	87	not_alive	0	still	0	artefact	0	n	0	0        	 	0.0	0	186.99216559995	187.09212809999	0.0999625000404194
162299	100	262	stimuli/plant2/clover/plant_clover10.jpg         	1	4	1	plant_clover10.jpg   	plant2   	7	clover    	9	clover10    	99	alive    	1	still	0	natural 	1	n	0	0        	 	0.0	0	187.142138800002	187.242136499961	0.0999976999592036
162449	100	263	stimuli/movNat/waves/mn_waves04.jpg              	1	4	1	mn_waves04.jpg       	movNat   	3	waves     	38	waves04     	383	not_alive	0	moves	1	natural 	1	n	1	0        	 	0.0	0	187.292142699938	187.392138900002	0.0999962000641972
162599	100	264	stimuli/plant2/fern/plant_fern02.jpg             	1	4	1	plant_fern02.jpg     	plant2   	7	fern      	14	fern02      	141	alive    	1	still	0	natural 	1	n	0	0        	 	0.0	0	187.442153299926	187.542140999925	0.099987699999474
162749	100	265	stimuli/animals2/bee/animal_bee10.jpg            	1	4	1	animal_bee10.jpg     	animals2 	1	bee       	0	bee10       	9	alive    	1	moves	1	natural 	1	n	0	1        	a	0.292144400067627	1	187.592182399938	187.692142699962	0.0999603000236675
162899	100	266	stimuli/movArt/helicopter/ma_helicopter01.jpg    	1	4	1	ma_helicopter01.jpg  	movArt   	2	helicopter	19	helicopter01	190	not_alive	0	moves	1	artefact	0	n	0	0        	 	0.0	0	187.742184999981	187.842161700013	0.0999767000321299
163049	100	267	stimuli/plant2/palmtree/plant_palmtree02.jpg     	1	4	1	plant_palmtree02.jpg 	plant2   	7	palmtree  	27	palmtree02  	271	alive    	1	still	0	natural 	1	n	1	0        	 	0.0	0	187.892171700019	187.992170299985	0.0999985999660566
163199	100	268	stimuli/movArt/bus/ma_bus01.jpg                  	1	4	1	ma_bus01.jpg         	movArt   	2	bus       	3	bus01       	30	not_alive	0	moves	1	artefact	0	n	0	0        	 	0.0	0	188.04217609996	188.142166799982	0.0999907000223175
163349	100	269	stimuli/nonmovNat/sand/nmn_sand05.jpg            	1	4	1	nmn_sand05.jpg       	nonmovNat	5	sand      	31	sand05      	314	not_alive	0	still	0	natural 	1	n	0	0        	 	0.0	0	188.192181500024	188.292173899943	0.0999923999188468
163499	100	270	stimuli/nonmovNat/cliff/nmn_cliff07.jpg          	1	4	1	nmn_cliff07.jpg      	nonmovNat	5	cliff     	7	cliff07     	76	not_alive	0	still	0	natural 	1	n	0	0        	 	0.0	0	188.34218789998	188.442180100014	0.0999922000337392
163649	100	271	stimuli/plant2/moss/plant_moss04.jpg             	1	4	1	plant_moss04.jpg     	plant2   	7	moss      	25	moss04      	253	alive    	1	still	0	natural 	1	n	0	0        	 	0.0	0	188.492185899988	188.592179199914	0.0999932999256998
163799	100	272	stimuli/movNat/waterfall/mn_waterfall06.jpg      	1	4	1	mn_waterfall06.jpg   	movNat   	3	waterfall 	37	waterfall06 	375	not_alive	0	moves	1	natural 	1	n	0	0        	 	0.0	0	188.642189999926	188.742183199967	0.0999932000413537
163949	100	273	stimuli/animals2/whale/animal_whale09.jpg        	1	4	1	animal_whale09.jpg   	animals2 	1	whale     	39	whale09     	398	alive    	1	moves	1	natural 	1	n	0	0        	 	0.0	0	188.792192599969	188.89218919992	0.0999965999508277
164099	100	274	stimuli/animals/horse/animal_horse03.jpg         	1	4	1	animal_horse03.jpg   	animals  	0	horse     	20	horse03     	202	alive    	1	moves	1	natural 	1	n	0	0        	 	0.0	0	188.942196400021	189.042190199951	0.0999937999295071
164249	100	275	stimuli/nonmovNat/shell/nmn_shell09.jpg          	1	4	1	nmn_shell09.jpg      	nonmovNat	5	shell     	32	shell09     	328	not_alive	0	still	0	natural 	1	n	0	0        	 	0.0	0	189.092205399997	189.192195300013	0.0999899000162259
164399	100	276	stimuli/animals/dog/animal_dog02.jpg             	1	4	1	animal_dog02.jpg     	animals  	0	dog       	11	dog02       	111	alive    	1	moves	1	natural 	1	n	0	0        	 	0.0	0	189.242206699913	189.342199199949	0.0999925000360236
164549	100	277	stimuli/movArt/train/ma_train02.jpg              	1	4	1	ma_train02.jpg       	movArt   	2	train     	34	train02     	341	not_alive	0	moves	1	artefact	0	n	0	0        	 	0.0	0	189.392206499935	189.492201299989	0.0999948000535369
164699	100	278	stimuli/animals2/pigeon/animal_pigeon02.jpg      	1	4	1	animal_pigeon02.jpg  	animals2 	1	pigeon    	28	pigeon02    	281	alive    	1	moves	1	natural 	1	n	0	0        	 	0.0	0	189.542212900007	189.642204899923	0.099991999915801
164849	100	279	stimuli/movNat/waterfall/mn_waterfall09.jpg      	1	4	1	mn_waterfall09.jpg   	movNat   	3	waterfall 	37	waterfall09 	378	not_alive	0	moves	1	natural 	1	n	1	0        	 	0.0	0	189.692215399933	189.792215200025	0.0999998000916094
164999	100	280	stimuli/nonmovNat/shell/nmn_shell06.jpg          	1	4	1	nmn_shell06.jpg      	nonmovNat	5	shell     	32	shell06     	325	not_alive	0	still	0	natural 	1	n	0	0        	 	0.0	0	189.842220599996	189.942192699993	0.0999720999971032
165149	100	281	stimuli/nonmovNat/crystal/nmn_crystal04.jpg      	1	4	1	nmn_crystal04.jpg    	nonmovNat	5	crystal   	10	crystal04   	103	not_alive	0	still	0	natural 	1	n	0	1        	a	0.400188900064677	1	189.992219500011	190.092218399979	0.099998899968341
165299	100	282	stimuli/movNat/fire/mn_fire05.jpg                	1	4	1	mn_fire05.jpg        	movNat   	3	fire      	15	fire05      	154	not_alive	0	moves	1	natural 	1	n	0	0        	 	0.0	0	190.142225599964	190.242217499996	0.0999919000314549
165449	100	283	stimuli/movArt/boat/ma_boat01.jpg                	1	4	1	ma_boat01.jpg        	movArt   	2	boat      	2	boat01      	20	not_alive	0	moves	1	artefact	0	n	0	0        	 	0.0	0	190.292233799933	190.392224499956	0.0999907000223175
165599	100	284	stimuli/movNat/fire/mn_fire02.jpg                	1	4	1	mn_fire02.jpg        	movNat   	3	fire      	15	fire02      	151	not_alive	0	moves	1	natural 	1	n	0	0        	 	0.0	0	190.442233699956	190.542230500025	0.0999968000687659
165749	100	285	stimuli/movNat/river/mn_river07.jpg              	1	4	1	mn_river07.jpg       	movNat   	3	river     	29	river07     	296	not_alive	0	moves	1	natural 	1	n	0	0        	 	0.0	0	190.592235199991	190.692231699941	0.0999964999500662
165899	100	286	stimuli/movArt/helicopter/ma_helicopter09.jpg    	1	4	1	ma_helicopter09.jpg  	movArt   	2	helicopter	19	helicopter09	198	not_alive	0	moves	1	artefact	0	n	0	0        	 	0.0	0	190.742241199943	190.842232999974	0.0999918000306934
166049	100	287	stimuli/plant/vine/plant_vine10.jpg              	1	4	1	plant_vine10.jpg     	plant    	6	vine      	36	vine10      	369	alive    	1	still	0	natural 	1	n	0	0        	 	0.0	0	190.89224299998	190.992244599969	0.1000015999889
166199	100	288	stimuli/plant2/fern/plant_fern04.jpg             	1	4	1	plant_fern04.jpg     	plant2   	7	fern      	14	fern04      	143	alive    	1	still	0	natural 	1	n	0	0        	 	0.0	0	191.042254099972	191.142243599985	0.0999895000131801
166349	100	289	stimuli/animals2/lemur/animal_lemur05.jpg        	1	4	1	animal_lemur05.jpg   	animals2 	1	lemur     	23	lemur05     	234	alive    	1	moves	1	natural 	1	n	0	0        	 	0.0	0	191.192253699992	191.292253499967	0.099999799975194
166499	100	290	stimuli/plant/grass/plant_grass03.jpg            	1	4	1	plant_grass03.jpg    	plant    	6	grass     	17	grass03     	172	alive    	1	still	0	natural 	1	n	0	0        	 	0.0	0	191.342254600022	191.442248799955	0.0999941999325529
166649	100	291	stimuli/movArt/helicopter/ma_helicopter10.jpg    	1	4	1	ma_helicopter10.jpg  	movArt   	2	helicopter	19	helicopter10	199	not_alive	0	moves	1	artefact	0	n	0	0        	 	0.0	0	191.492260999978	191.592256299918	0.0999952999409288
166799	100	292	stimuli/movArt/car/ma_car07.jpg                  	1	4	1	ma_car07.jpg         	movArt   	2	car       	5	car07       	56	not_alive	0	moves	1	artefact	0	n	0	0        	 	0.0	0	191.642264799913	191.742253999924	0.0999892000108957
166949	100	293	stimuli/nonmovArt/headphones/nma_headphones08.jpg	1	4	1	nma_headphones08.jpg 	nonmovArt	4	headphones	18	headphones08	187	not_alive	0	still	0	artefact	0	n	0	0        	 	0.0	0	191.792255499982	191.892258899985	0.100003400002606
167099	100	294	stimuli/movArt/bus/ma_bus02.jpg                  	1	4	1	ma_bus02.jpg         	movArt   	2	bus       	3	bus02       	31	not_alive	0	moves	1	artefact	0	n	0	0        	 	0.0	0	191.942274099914	192.042277799919	0.100003700004891
167249	100	295	stimuli/nonmovArt/lock/nma_lock06.jpg            	1	4	1	nma_lock06.jpg       	nonmovArt	4	lock      	24	lock06      	245	not_alive	0	still	0	artefact	0	n	0	0        	 	0.0	0	192.092273499933	192.192271900014	0.0999984000809491
167399	100	296	stimuli/movArt/boat/ma_boat08.jpg                	1	4	1	ma_boat08.jpg        	movArt   	2	boat      	2	boat08      	27	not_alive	0	moves	1	artefact	0	n	0	0        	 	0.0	0	192.242276499979	192.342271699919	0.0999951999401674
167549	100	297	stimuli/movNat/fire/mn_fire10.jpg                	1	4	1	mn_fire10.jpg        	movNat   	3	fire      	15	fire10      	159	not_alive	0	moves	1	natural 	1	n	0	0        	 	0.0	0	192.392282099929	192.492274699966	0.099992600036785
167699	100	298	stimuli/movArt/bus/ma_bus06.jpg                  	1	4	1	ma_bus06.jpg         	movArt   	2	bus       	3	bus06       	35	not_alive	0	moves	1	artefact	0	n	0	0        	 	0.0	0	192.542290100013	192.642277600011	0.0999874999979511
167849	100	299	stimuli/animals/dog/animal_dog04.jpg             	1	4	1	animal_dog04.jpg     	animals  	0	dog       	11	dog04       	113	alive    	1	moves	1	natural 	1	n	0	0        	 	0.0	0	192.69228800002	192.79228049994	0.0999924999196082
167999	100	300	stimuli/animals2/tiger/animal_tiger01.jpg        	1	4	1	animal_tiger01.jpg   	animals2 	1	tiger     	33	tiger01     	330	alive    	1	moves	1	natural 	1	n	0	0        	 	0.0	0	192.842294799979	192.942284299992	0.0999895000131801
168149	100	301	stimuli/animals2/whale/animal_whale02.jpg        	1	4	1	animal_whale02.jpg   	animals2 	1	whale     	39	whale02     	391	alive    	1	moves	1	natural 	1	n	0	0        	 	0.0	0	192.992299599922	193.092289099935	0.0999895000131801
168299	100	302	stimuli/nonmovArt/lock/nma_lock05.jpg            	1	4	1	nma_lock05.jpg       	nonmovArt	4	lock      	24	lock05      	244	not_alive	0	still	0	artefact	0	n	0	0        	 	0.0	0	193.142303599976	193.242293999996	0.0999904000200331
168449	100	303	stimuli/animals/cat/animal_cat02.jpg             	1	4	1	animal_cat02.jpg     	animals  	0	cat       	6	cat02       	61	alive    	1	moves	1	natural 	1	n	0	0        	 	0.0	0	193.2923037	193.39229749993	0.0999937999295071
168599	100	304	stimuli/nonmovNat/rock/nmn_rock08.jpg            	1	4	1	nmn_rock08.jpg       	nonmovNat	5	rock      	30	rock08      	307	not_alive	0	still	0	natural 	1	n	0	0        	 	0.0	0	193.442308499943	193.542298699962	0.0999902000185102
168749	100	305	stimuli/movArt/train/ma_train06.jpg              	1	4	1	ma_train06.jpg       	movArt   	2	train     	34	train06     	345	not_alive	0	moves	1	artefact	0	n	0	0        	 	0.0	0	193.592311799992	193.692302900017	0.0999911000253633
168899	100	306	stimuli/movNat/waterfall/mn_waterfall09.jpg      	1	4	1	mn_waterfall09.jpg   	movNat   	3	waterfall 	37	waterfall09 	378	not_alive	0	moves	1	natural 	1	n	0	0        	 	0.0	0	193.742313599912	193.842308299965	0.0999947000527754
169049	100	307	stimuli/animals2/bee/animal_bee04.jpg            	1	4	1	animal_bee04.jpg     	animals2 	1	bee       	0	bee04       	3	alive    	1	moves	1	natural 	1	n	0	0        	 	0.0	0	193.892307400005	193.992298599915	0.0999911999097094
169199	100	308	stimuli/plant2/lemontree/plant_lemontree03.jpg   	1	4	1	plant_lemontree03.jpg	plant2   	7	lemontree 	22	lemontree03 	222	alive    	1	still	0	natural 	1	n	0	0        	 	0.0	0	194.042310599936	194.142302899971	0.0999923000345007
169349	100	309	stimuli/plant/tree/plant_tree10.jpg              	1	4	1	plant_tree10.jpg     	plant    	6	tree      	35	tree10      	359	alive    	1	still	0	natural 	1	n	0	0        	 	0.0	0	194.19231329998	194.29230630002	0.0999930000398308
169499	100	310	stimuli/animals/cat/animal_cat04.jpg             	1	4	1	animal_cat04.jpg     	animals  	0	cat       	6	cat04       	63	alive    	1	moves	1	natural 	1	n	0	0        	 	0.0	0	194.342321099946	194.442309599952	0.0999885000055656
169649	100	311	stimuli/animals2/bee/animal_bee04.jpg            	1	4	1	animal_bee04.jpg     	animals2 	1	bee       	0	bee04       	3	alive    	1	moves	1	natural 	1	n	0	0        	 	0.0	0	194.492322199978	194.592335299938	0.100013099960051
169799	100	312	stimuli/animals/eagle/animal_eagle02.jpg         	1	4	1	animal_eagle02.jpg   	animals  	0	eagle     	13	eagle02     	131	alive    	1	moves	1	natural 	1	n	0	0        	 	0.0	0	194.642325500026	194.742317499942	0.099991999915801
169949	100	313	stimuli/animals2/lemur/animal_lemur07.jpg        	1	4	1	animal_lemur07.jpg   	animals2 	1	lemur     	23	lemur07     	236	alive    	1	moves	1	natural 	1	n	0	0        	 	0.0	0	194.792327299947	194.892322200001	0.0999949000542983
170099	100	314	stimuli/nonmovArt/bench/nma_bench08.jpg          	1	4	1	nma_bench08.jpg      	nonmovArt	4	bench     	1	bench08     	17	not_alive	0	still	0	artefact	0	n	0	0        	 	0.0	0	194.942330399994	195.04232639994	0.099995999946259
170249	100	315	stimuli/plant2/palmtree/plant_palmtree09.jpg     	1	4	1	plant_palmtree09.jpg 	plant2   	7	palmtree  	27	palmtree09  	278	alive    	1	still	0	natural 	1	n	0	0        	 	0.0	0	195.092335699941	195.192327899975	0.0999922000337392
170399	100	316	stimuli/nonmovArt/headphones/nma_headphones09.jpg	1	4	1	nma_headphones09.jpg 	nonmovArt	4	headphones	18	headphones09	188	not_alive	0	still	0	artefact	0	n	0	0        	 	0.0	0	195.242338999989	195.342332399916	0.0999933999264613
170549	100	317	stimuli/nonmovArt/headphones/nma_headphones02.jpg	1	4	1	nma_headphones02.jpg 	nonmovArt	4	headphones	18	headphones02	181	not_alive	0	still	0	artefact	0	n	0	0        	 	0.0	0	195.392343699932	195.492335199961	0.0999915000284091
170699	100	318	stimuli/nonmovNat/crystal/nmn_crystal06.jpg      	1	4	1	nmn_crystal06.jpg    	nonmovNat	5	crystal   	10	crystal06   	105	not_alive	0	still	0	natural 	1	n	0	0        	 	0.0	0	195.542346399976	195.642339200014	0.0999928000383079
170849	100	319	stimuli/nonmovNat/crystal/nmn_crystal02.jpg      	1	4	1	nmn_crystal02.jpg    	nonmovNat	5	crystal   	10	crystal02   	101	not_alive	0	still	0	natural 	1	n	0	0        	 	0.0	0	195.692350000027	195.792342099943	0.0999920999165624
178200	100	320	stimuli/animals/dog/animal_dog04.jpg             	1	5	1	animal_dog04.jpg     	animals  	0	dog       	11	dog04       	113	alive    	1	moves	1	natural 	1	n	0	0        	 	0.0	0	203.042527899961	203.14251809998	0.0999902000185102
178350	100	321	stimuli/nonmovNat/rock/nmn_rock02.jpg            	1	5	1	nmn_rock02.jpg       	nonmovNat	5	rock      	30	rock02      	301	not_alive	0	still	0	natural 	1	n	0	0        	 	0.0	0	203.192529199994	203.292541899951	0.100012699957006
178500	100	322	stimuli/plant2/lemontree/plant_lemontree10.jpg   	1	5	1	plant_lemontree10.jpg	plant2   	7	lemontree 	22	lemontree10 	229	alive    	1	still	0	natural 	1	n	0	0        	 	0.0	0	203.34253429994	203.442541399971	0.10000710003078
178650	100	323	stimuli/plant2/palmtree/plant_palmtree05.jpg     	1	5	1	plant_palmtree05.jpg 	plant2   	7	palmtree  	27	palmtree05  	274	alive    	1	still	0	natural 	1	n	0	0        	 	0.0	0	203.492536799982	203.592533099931	0.0999962999485433
178800	100	324	stimuli/movNat/waves/mn_waves10.jpg              	1	5	1	mn_waves10.jpg       	movNat   	3	waves     	38	waves10     	389	not_alive	0	moves	1	natural 	1	n	0	0        	 	0.0	0	203.642539700028	203.742533099954	0.0999933999264613
178950	100	325	stimuli/animals2/lemur/animal_lemur08.jpg        	1	5	1	animal_lemur08.jpg   	animals2 	1	lemur     	23	lemur08     	237	alive    	1	moves	1	natural 	1	n	0	0        	 	0.0	0	203.7925636	203.892536200001	0.0999726000009105
179100	100	326	stimuli/plant2/fern/plant_fern07.jpg             	1	5	1	plant_fern07.jpg     	plant2   	7	fern      	14	fern07      	146	alive    	1	still	0	natural 	1	n	0	0        	 	0.0	0	203.942549099913	204.042545399978	0.0999963000649586
179250	100	327	stimuli/nonmovArt/mug/nma_mug06.jpg              	1	5	1	nma_mug06.jpg        	nonmovArt	4	mug       	26	mug06       	265	not_alive	0	still	0	artefact	0	n	0	0        	 	0.0	0	204.092550999951	204.192553399946	0.100002399994992
179400	100	328	stimuli/plant2/moss/plant_moss07.jpg             	1	5	1	plant_moss07.jpg     	plant2   	7	moss      	25	moss07      	256	alive    	1	still	0	natural 	1	n	0	0        	 	0.0	0	204.242552299984	204.342547199922	0.099994899937883
179550	100	329	stimuli/animals/horse/animal_horse05.jpg         	1	5	1	animal_horse05.jpg   	animals  	0	horse     	20	horse05     	204	alive    	1	moves	1	natural 	1	n	0	0        	 	0.0	0	204.392559099942	204.492553499993	0.0999944000504911
179700	100	330	stimuli/animals2/pigeon/animal_pigeon03.jpg      	1	5	1	animal_pigeon03.jpg  	animals2 	1	pigeon    	28	pigeon03    	282	alive    	1	moves	1	natural 	1	n	0	0        	 	0.0	0	204.542591199977	204.642551299999	0.0999601000221446
179850	100	331	stimuli/movNat/hotspring/mn_hotspring03.jpg      	1	5	1	mn_hotspring03.jpg   	movNat   	3	hotspring 	21	hotspring03 	212	not_alive	0	moves	1	natural 	1	n	0	0        	 	0.0	0	204.692564599914	204.792559099966	0.0999945000512525
180000	100	332	stimuli/animals/eagle/animal_eagle10.jpg         	1	5	1	animal_eagle10.jpg   	animals  	0	eagle     	13	eagle10     	139	alive    	1	moves	1	natural 	1	n	0	0        	 	0.0	0	204.842568099964	204.942563300021	0.0999952000565827
180150	100	333	stimuli/plant/cactus/plant_cactus02.jpg          	1	5	1	plant_cactus02.jpg   	plant    	6	cactus    	4	cactus02    	41	alive    	1	still	0	natural 	1	n	0	0        	 	0.0	0	204.992572100018	205.092566299951	0.0999941999325529
180300	100	334	stimuli/nonmovNat/cliff/nmn_cliff08.jpg          	1	5	1	nmn_cliff08.jpg      	nonmovNat	5	cliff     	7	cliff08     	77	not_alive	0	still	0	natural 	1	n	0	0        	 	0.0	0	205.142591099953	205.242568299989	0.0999772000359371
180450	100	335	stimuli/movNat/river/mn_river03.jpg              	1	5	1	mn_river03.jpg       	movNat   	3	river     	29	river03     	292	not_alive	0	moves	1	natural 	1	n	0	0        	 	0.0	0	205.292598199914	205.392573799938	0.0999756000237539
180600	100	336	stimuli/nonmovNat/cliff/nmn_cliff10.jpg          	1	5	1	nmn_cliff10.jpg      	nonmovNat	5	cliff     	7	cliff10     	79	not_alive	0	still	0	natural 	1	n	0	0        	 	0.0	0	205.442584399949	205.542590599973	0.100006200023927
180750	100	337	stimuli/animals/cat/animal_cat03.jpg             	1	5	1	animal_cat03.jpg     	animals  	0	cat       	6	cat03       	62	alive    	1	moves	1	natural 	1	n	0	0        	 	0.0	0	205.592586999992	205.692583399941	0.0999963999493048
180900	100	338	stimuli/nonmovArt/clothespeg/nma_clothespeg06.jpg	1	5	1	nma_clothespeg06.jpg 	nonmovArt	4	clothespeg	8	clothespeg06	85	not_alive	0	still	0	artefact	0	n	0	0        	 	0.0	0	205.742593799951	205.842583799968	0.0999900000169873
181050	100	339	stimuli/nonmovNat/shell/nmn_shell10.jpg          	1	5	1	nmn_shell10.jpg      	nonmovNat	5	shell     	32	shell10     	329	not_alive	0	still	0	natural 	1	n	0	0        	 	0.0	0	205.892596599995	205.992588300025	0.099991700029932
181200	100	340	stimuli/animals/dolphin/animal_dolphin03.jpg     	1	5	1	animal_dolphin03.jpg 	animals  	0	dolphin   	12	dolphin03   	122	alive    	1	moves	1	natural 	1	n	0	0        	 	0.0	0	206.042613000027	206.142592999968	0.0999799999408424
181350	100	341	stimuli/nonmovArt/lock/nma_lock03.jpg            	1	5	1	nma_lock03.jpg       	nonmovArt	4	lock      	24	lock03      	242	not_alive	0	still	0	artefact	0	n	0	0        	 	0.0	0	206.19260379998	206.292596900021	0.0999931000405922
181500	100	342	stimuli/nonmovNat/sand/nmn_sand01.jpg            	1	5	1	nmn_sand01.jpg       	nonmovNat	5	sand      	31	sand01      	310	not_alive	0	still	0	natural 	1	n	0	0        	 	0.0	0	206.342607000028	206.442597899935	0.099990899907425
181650	100	343	stimuli/animals2/tiger/animal_tiger01.jpg        	1	5	1	animal_tiger01.jpg   	animals2 	1	tiger     	33	tiger01     	330	alive    	1	moves	1	natural 	1	n	0	0        	 	0.0	0	206.492608399945	206.592603500001	0.0999951000558212
181800	100	344	stimuli/plant2/clover/plant_clover08.jpg         	1	5	1	plant_clover08.jpg   	plant2   	7	clover    	9	clover08    	97	alive    	1	still	0	natural 	1	n	0	0        	 	0.0	0	206.642611599993	206.742605799925	0.0999941999325529
181950	100	345	stimuli/animals2/pigeon/animal_pigeon08.jpg      	1	5	1	animal_pigeon08.jpg  	animals2 	1	pigeon    	28	pigeon08    	287	alive    	1	moves	1	natural 	1	n	0	0        	 	0.0	0	206.792615699931	206.892610399984	0.0999947000527754
182100	100	346	stimuli/animals2/tiger/animal_tiger03.jpg        	1	5	1	animal_tiger03.jpg   	animals2 	1	tiger     	33	tiger03     	332	alive    	1	moves	1	natural 	1	n	0	0        	 	0.0	0	206.942620999995	207.042614799924	0.0999937999295071
182250	100	347	stimuli/movArt/train/ma_train01.jpg              	1	5	1	ma_train01.jpg       	movArt   	2	train     	34	train01     	340	not_alive	0	moves	1	artefact	0	n	0	0        	 	0.0	0	207.092623899924	207.192618899979	0.0999950000550598
182400	100	348	stimuli/plant/flower/plant_flower08.jpg          	1	5	1	plant_flower08.jpg   	plant    	6	flower    	16	flower08    	167	alive    	1	still	0	natural 	1	n	0	0        	 	0.0	0	207.242627599975	207.342621900025	0.0999943000497296
182550	100	349	stimuli/nonmovNat/sand/nmn_sand03.jpg            	1	5	1	nmn_sand03.jpg       	nonmovNat	5	sand      	31	sand03      	312	not_alive	0	still	0	natural 	1	n	0	0        	 	0.0	0	207.392642399995	207.492624099948	0.099981699953787
182700	100	350	stimuli/nonmovArt/bench/nma_bench01.jpg          	1	5	1	nma_bench01.jpg      	nonmovArt	4	bench     	1	bench01     	10	not_alive	0	still	0	artefact	0	n	0	0        	 	0.0	0	207.542634599959	207.642625999986	0.0999914000276476
182850	100	351	stimuli/movArt/car/ma_car06.jpg                  	1	5	1	ma_car06.jpg         	movArt   	2	car       	5	car06       	55	not_alive	0	moves	1	artefact	0	n	0	0        	 	0.0	0	207.692639100016	207.792632699944	0.0999935999279842
183000	100	352	stimuli/movArt/boat/ma_boat03.jpg                	1	5	1	ma_boat03.jpg        	movArt   	2	boat      	2	boat03      	22	not_alive	0	moves	1	artefact	0	n	0	0        	 	0.0	0	207.842643199954	207.942636499996	0.0999933000421152
183150	100	353	stimuli/movNat/river/mn_river07.jpg              	1	5	1	mn_river07.jpg       	movNat   	3	river     	29	river07     	296	not_alive	0	moves	1	natural 	1	n	0	0        	 	0.0	0	207.992647100007	208.092665200005	0.100018099998124
183300	100	354	stimuli/nonmovArt/clothespeg/nma_clothespeg10.jpg	1	5	1	nma_clothespeg10.jpg 	nonmovArt	4	clothespeg	8	clothespeg10	89	not_alive	0	still	0	artefact	0	n	0	0        	 	0.0	0	208.142671599984	208.242648000014	0.0999764000298455
183450	100	355	stimuli/plant/tree/plant_tree09.jpg              	1	5	1	plant_tree09.jpg     	plant    	6	tree      	35	tree09      	358	alive    	1	still	0	natural 	1	n	0	0        	 	0.0	0	208.292676499928	208.392667999957	0.0999915000284091
183600	100	356	stimuli/nonmovArt/mug/nma_mug03.jpg              	1	5	1	nma_mug03.jpg        	nonmovArt	4	mug       	26	mug03       	262	not_alive	0	still	0	artefact	0	n	0	0        	 	0.0	0	208.442677699961	208.542669999995	0.0999923000345007
183750	100	357	stimuli/plant/vine/plant_vine04.jpg              	1	5	1	plant_vine04.jpg     	plant    	6	vine      	36	vine04      	363	alive    	1	still	0	natural 	1	n	0	0        	 	0.0	0	208.592679099995	208.692676999955	0.0999978999607265
183900	100	358	stimuli/plant/cactus/plant_cactus09.jpg          	1	5	1	plant_cactus09.jpg   	plant    	6	cactus    	4	cactus09    	48	alive    	1	still	0	natural 	1	n	0	0        	 	0.0	0	208.742685699952	208.842684099916	0.0999983999645338
184050	100	359	stimuli/nonmovNat/rock/nmn_rock10.jpg            	1	5	1	nmn_rock10.jpg       	nonmovNat	5	rock      	30	rock10      	309	not_alive	0	still	0	natural 	1	n	0	0        	 	0.0	0	208.89268759999	208.992693200009	0.100005600019358
184200	100	360	stimuli/animals/cat/animal_cat04.jpg             	1	5	1	animal_cat04.jpg     	animals  	0	cat       	6	cat04       	63	alive    	1	moves	1	natural 	1	n	0	0        	 	0.0	0	209.042693799944	209.142686599982	0.0999928000383079
184350	100	361	stimuli/animals/dog/animal_dog01.jpg             	1	5	1	animal_dog01.jpg     	animals  	0	dog       	11	dog01       	110	alive    	1	moves	1	natural 	1	n	0	0        	 	0.0	0	209.192698900006	209.292691199924	0.0999922999180853
184500	100	362	stimuli/movNat/waves/mn_waves04.jpg              	1	5	1	mn_waves04.jpg       	movNat   	3	waves     	38	waves04     	383	not_alive	0	moves	1	natural 	1	n	0	0        	 	0.0	0	209.342697800021	209.442690999946	0.0999931999249384
184650	100	363	stimuli/plant/vine/plant_vine04.jpg              	1	5	1	plant_vine04.jpg     	plant    	6	vine      	36	vine04      	363	alive    	1	still	0	natural 	1	n	0	0        	 	0.0	0	209.492701899959	209.592693199986	0.0999913000268862
184800	100	364	stimuli/movArt/helicopter/ma_helicopter07.jpg    	1	5	1	ma_helicopter07.jpg  	movArt   	2	helicopter	19	helicopter07	196	not_alive	0	moves	1	artefact	0	n	0	0        	 	0.0	0	209.6427196	209.742734399973	0.100014799972996
184950	100	365	stimuli/nonmovArt/bench/nma_bench02.jpg          	1	5	1	nma_bench02.jpg      	nonmovArt	4	bench     	1	bench02     	11	not_alive	0	still	0	artefact	0	n	0	0        	 	0.0	0	209.792719500023	209.89271039993	0.099990899907425
185100	100	366	stimuli/animals/cat/animal_cat10.jpg             	1	5	1	animal_cat10.jpg     	animals  	0	cat       	6	cat10       	69	alive    	1	moves	1	natural 	1	n	0	0        	 	0.0	0	209.942722899956	210.04269859998	0.0999757000245154
185250	100	367	stimuli/movNat/hotspring/mn_hotspring05.jpg      	1	5	1	mn_hotspring05.jpg   	movNat   	3	hotspring 	21	hotspring05 	214	not_alive	0	moves	1	natural 	1	n	0	0        	 	0.0	0	210.092719399952	210.192717999918	0.0999985999660566
185400	100	368	stimuli/plant2/fern/plant_fern05.jpg             	1	5	1	plant_fern05.jpg     	plant2   	7	fern      	14	fern05      	144	alive    	1	still	0	natural 	1	n	0	0        	 	0.0	0	210.242732199957	210.34270639997	0.0999742000130936
185550	100	369	stimuli/plant2/lemontree/plant_lemontree05.jpg   	1	5	1	plant_lemontree05.jpg	plant2   	7	lemontree 	22	lemontree05 	224	alive    	1	still	0	natural 	1	n	0	0        	 	0.0	0	210.392732499982	210.49273129995	0.0999987999675795
185700	100	370	stimuli/movArt/boat/ma_boat01.jpg                	1	5	1	ma_boat01.jpg        	movArt   	2	boat      	2	boat01      	20	not_alive	0	moves	1	artefact	0	n	0	0        	 	0.0	0	210.542741399957	210.642731799977	0.0999904000200331
185850	100	371	stimuli/plant/grass/plant_grass06.jpg            	1	5	1	plant_grass06.jpg    	plant    	6	grass     	17	grass06     	175	alive    	1	still	0	natural 	1	n	0	0        	 	0.0	0	210.692727699992	210.792734100018	0.10000640002545
186000	100	372	stimuli/animals2/whale/animal_whale04.jpg        	1	5	1	animal_whale04.jpg   	animals2 	1	whale     	39	whale04     	393	alive    	1	moves	1	natural 	1	n	0	0        	 	0.0	0	210.842740399996	210.942739299964	0.099998899968341
186150	100	373	stimuli/animals/dolphin/animal_dolphin06.jpg     	1	5	1	animal_dolphin06.jpg 	animals  	0	dolphin   	12	dolphin06   	125	alive    	1	moves	1	natural 	1	n	0	0        	 	0.0	0	210.99274659995	211.092731399927	0.099984799977392
186300	100	374	stimuli/animals2/bee/animal_bee08.jpg            	1	5	1	animal_bee08.jpg     	animals2 	1	bee       	0	bee08       	7	alive    	1	moves	1	natural 	1	n	0	0        	 	0.0	0	211.142753500026	211.24273129995	0.0999777999240905
186450	100	375	stimuli/movNat/waves/mn_waves01.jpg              	1	5	1	mn_waves01.jpg       	movNat   	3	waves     	38	waves01     	380	not_alive	0	moves	1	natural 	1	n	0	0        	 	0.0	0	211.292759899981	211.392749199993	0.0999893000116572
186600	100	376	stimuli/animals2/lemur/animal_lemur06.jpg        	1	5	1	animal_lemur06.jpg   	animals2 	1	lemur     	23	lemur06     	235	alive    	1	moves	1	natural 	1	n	0	0        	 	0.0	0	211.442743599997	211.54273659992	0.0999929999234155
186750	100	377	stimuli/movNat/river/mn_river10.jpg              	1	5	1	mn_river10.jpg       	movNat   	3	river     	29	river10     	299	not_alive	0	moves	1	natural 	1	n	1	0        	 	0.0	0	211.592753699981	211.692743599997	0.0999899000162259
186900	100	378	stimuli/nonmovNat/shell/nmn_shell08.jpg          	1	5	1	nmn_shell08.jpg      	nonmovNat	5	shell     	32	shell08     	327	not_alive	0	still	0	natural 	1	n	0	0        	 	0.0	0	211.742768099997	211.842760899919	0.0999927999218926
187050	100	379	stimuli/plant2/palmtree/plant_palmtree10.jpg     	1	5	1	plant_palmtree10.jpg 	plant2   	7	palmtree  	27	palmtree10  	279	alive    	1	still	0	natural 	1	n	0	1        	f	0.391969199990854	1	211.892768900027	211.992746999953	0.0999780999263748
187200	100	380	stimuli/plant2/clover/plant_clover05.jpg         	1	5	1	plant_clover05.jpg   	plant2   	7	clover    	9	clover05    	94	alive    	1	still	0	natural 	1	n	0	0        	 	0.0	0	212.042772999965	212.142767900019	0.0999949000542983
187350	100	381	stimuli/movArt/helicopter/ma_helicopter08.jpg    	1	5	1	ma_helicopter08.jpg  	movArt   	2	helicopter	19	helicopter08	197	not_alive	0	moves	1	artefact	0	n	0	0        	 	0.0	0	212.19276190002	212.292755399947	0.0999934999272227
187500	100	382	stimuli/movArt/car/ma_car05.jpg                  	1	5	1	ma_car05.jpg         	movArt   	2	car       	5	car05       	54	not_alive	0	moves	1	artefact	0	n	0	0        	 	0.0	0	212.342770699994	212.442774499999	0.100003800005652
187650	100	383	stimuli/movArt/train/ma_train03.jpg              	1	5	1	ma_train03.jpg       	movArt   	2	train     	34	train03     	342	not_alive	0	moves	1	artefact	0	n	0	0        	 	0.0	0	212.492786100018	212.592763999943	0.099977899924852
187800	100	384	stimuli/nonmovNat/rock/nmn_rock10.jpg            	1	5	1	nmn_rock10.jpg       	nonmovNat	5	rock      	30	rock10      	309	not_alive	0	still	0	natural 	1	n	0	0        	 	0.0	0	212.64278939995	212.74276579998	0.0999764000298455
187950	100	385	stimuli/movNat/fire/mn_fire06.jpg                	1	5	1	mn_fire06.jpg        	movNat   	3	fire      	15	fire06      	155	not_alive	0	moves	1	natural 	1	n	0	0        	 	0.0	0	212.792775299982	212.892771799932	0.0999964999500662
188100	100	386	stimuli/animals/eagle/animal_eagle06.jpg         	1	5	1	animal_eagle06.jpg   	animals  	0	eagle     	13	eagle06     	135	alive    	1	moves	1	natural 	1	n	0	0        	 	0.0	0	212.942798799952	213.042791399988	0.099992600036785
188250	100	387	stimuli/nonmovNat/shell/nmn_shell02.jpg          	1	5	1	nmn_shell02.jpg      	nonmovNat	5	shell     	32	shell02     	321	not_alive	0	still	0	natural 	1	n	1	0        	 	0.0	0	213.092783699976	213.192776200012	0.0999925000360236
188400	100	388	stimuli/movNat/fire/mn_fire09.jpg                	1	5	1	mn_fire09.jpg        	movNat   	3	fire      	15	fire09      	158	not_alive	0	moves	1	natural 	1	n	0	0        	 	0.0	0	213.242806899943	213.342798999976	0.0999921000329778
188550	100	389	stimuli/animals2/whale/animal_whale10.jpg        	1	5	1	animal_whale10.jpg   	animals2 	1	whale     	39	whale10     	399	alive    	1	moves	1	natural 	1	n	0	0        	 	0.0	0	213.392797800014	213.492799400003	0.1000015999889
188700	100	390	stimuli/plant2/moss/plant_moss05.jpg             	1	5	1	plant_moss05.jpg     	plant2   	7	moss      	25	moss05      	254	alive    	1	still	0	natural 	1	n	0	0        	 	0.0	0	213.54279560002	213.642812000006	0.100016399985179
188850	100	391	stimuli/movNat/waterfall/mn_waterfall10.jpg      	1	5	1	mn_waterfall10.jpg   	movNat   	3	waterfall 	37	waterfall10 	379	not_alive	0	moves	1	natural 	1	n	0	0        	 	0.0	0	213.692815899965	213.792798599927	0.0999826999614015
189000	100	392	stimuli/plant/cactus/plant_cactus07.jpg          	1	5	1	plant_cactus07.jpg   	plant    	6	cactus    	4	cactus07    	46	alive    	1	still	0	natural 	1	n	0	0        	 	0.0	0	213.842822599923	213.942810699926	0.0999881000025198
189150	100	393	stimuli/movArt/car/ma_car03.jpg                  	1	5	1	ma_car03.jpg         	movArt   	2	car       	5	car03       	52	not_alive	0	moves	1	artefact	0	n	0	0        	 	0.0	0	213.992807499948	214.092818500008	0.100011000060476
189300	100	394	stimuli/nonmovNat/shell/nmn_shell02.jpg          	1	5	1	nmn_shell02.jpg      	nonmovNat	5	shell     	32	shell02     	321	not_alive	0	still	0	natural 	1	n	0	0        	 	0.0	0	214.14280989999	214.242804099922	0.0999941999325529
189450	100	395	stimuli/nonmovNat/crystal/nmn_crystal02.jpg      	1	5	1	nmn_crystal02.jpg    	nonmovNat	5	crystal   	10	crystal02   	101	not_alive	0	still	0	natural 	1	n	0	0        	 	0.0	0	214.292830399936	214.392810599995	0.0999802000587806
189600	100	396	stimuli/nonmovArt/headphones/nma_headphones05.jpg	1	5	1	nma_headphones05.jpg 	nonmovArt	4	headphones	18	headphones05	184	not_alive	0	still	0	artefact	0	n	0	0        	 	0.0	0	214.442833699984	214.542812899919	0.0999791999347508
189750	100	397	stimuli/nonmovArt/clothespeg/nma_clothespeg02.jpg	1	5	1	nma_clothespeg02.jpg 	nonmovArt	4	clothespeg	8	clothespeg02	81	not_alive	0	still	0	artefact	0	n	0	0        	 	0.0	0	214.592822599923	214.692813799949	0.0999912000261247
189900	100	398	stimuli/plant/vine/plant_vine09.jpg              	1	5	1	plant_vine09.jpg     	plant    	6	vine      	36	vine09      	368	alive    	1	still	0	natural 	1	n	0	0        	 	0.0	0	214.742824999965	214.842834400013	0.100009400048293
190050	100	399	stimuli/movArt/bus/ma_bus01.jpg                  	1	5	1	ma_bus01.jpg         	movArt   	2	bus       	3	bus01       	30	not_alive	0	moves	1	artefact	0	n	0	0        	 	0.0	0	214.892835899955	214.992825099966	0.0999892000108957
192600	100	400	stimuli/nonmovArt/lock/nma_lock04.jpg            	1	6	1	nma_lock04.jpg       	nonmovArt	4	lock      	24	lock04      	243	not_alive	0	still	0	artefact	0	n	0	0        	 	0.0	0	217.442889799946	217.542883499991	0.099993700045161
192750	100	401	stimuli/plant/grass/plant_grass01.jpg            	1	6	1	plant_grass01.jpg    	plant    	6	grass     	17	grass01     	170	alive    	1	still	0	natural 	1	n	0	0        	 	0.0	0	217.592892199988	217.692882100004	0.0999899000162259
192900	100	402	stimuli/nonmovArt/mug/nma_mug02.jpg              	1	6	1	nma_mug02.jpg        	nonmovArt	4	mug       	26	mug02       	261	not_alive	0	still	0	artefact	0	n	0	0        	 	0.0	0	217.742892700015	217.842889499967	0.0999967999523506
193050	100	403	stimuli/nonmovNat/cliff/nmn_cliff03.jpg          	1	6	1	nmn_cliff03.jpg      	nonmovNat	5	cliff     	7	cliff03     	72	not_alive	0	still	0	natural 	1	n	0	0        	 	0.0	0	217.892903800006	217.992891900009	0.0999881000025198
193200	100	404	stimuli/animals2/tiger/animal_tiger06.jpg        	1	6	1	animal_tiger06.jpg   	animals2 	1	tiger     	33	tiger06     	335	alive    	1	moves	1	natural 	1	n	0	0        	 	0.0	0	218.042898899992	218.142894399934	0.0999954999424517
193350	100	405	stimuli/movArt/train/ma_train03.jpg              	1	6	1	ma_train03.jpg       	movArt   	2	train     	34	train03     	342	not_alive	0	moves	1	artefact	0	n	0	0        	 	0.0	0	218.192907799967	218.292896599974	0.0999888000078499
193500	100	406	stimuli/animals/horse/animal_horse06.jpg         	1	6	1	animal_horse06.jpg   	animals  	0	horse     	20	horse06     	205	alive    	1	moves	1	natural 	1	n	0	0        	 	0.0	0	218.342906999984	218.442898500012	0.0999915000284091
193650	100	407	stimuli/movNat/waterfall/mn_waterfall05.jpg      	1	6	1	mn_waterfall05.jpg   	movNat   	3	waterfall 	37	waterfall05 	374	not_alive	0	moves	1	natural 	1	n	0	0        	 	0.0	0	218.492911899928	218.592906999984	0.0999951000558212
193800	100	408	stimuli/nonmovArt/clothespeg/nma_clothespeg04.jpg	1	6	1	nma_clothespeg04.jpg 	nonmovArt	4	clothespeg	8	clothespeg04	83	not_alive	0	still	0	artefact	0	n	0	0        	 	0.0	0	218.64291309996	218.742907300009	0.0999942000489682
193950	100	409	stimuli/movArt/bus/ma_bus05.jpg                  	1	6	1	ma_bus05.jpg         	movArt   	2	bus       	3	bus05       	34	not_alive	0	moves	1	artefact	0	n	0	0        	 	0.0	0	218.792919199914	218.892911499948	0.0999923000345007
194100	100	410	stimuli/movNat/river/mn_river10.jpg              	1	6	1	mn_river10.jpg       	movNat   	3	river     	29	river10     	299	not_alive	0	moves	1	natural 	1	n	0	0        	 	0.0	0	218.942922799964	219.042915400001	0.099992600036785
194250	100	411	stimuli/animals/eagle/animal_eagle04.jpg         	1	6	1	animal_eagle04.jpg   	animals  	0	eagle     	13	eagle04     	133	alive    	1	moves	1	natural 	1	n	0	0        	 	0.0	0	219.092926000012	219.192919399939	0.0999933999264613
194400	100	412	stimuli/nonmovNat/sand/nmn_sand07.jpg            	1	6	1	nmn_sand07.jpg       	nonmovNat	5	sand      	31	sand07      	316	not_alive	0	still	0	natural 	1	n	0	0        	 	0.0	0	219.242931999965	219.342924099998	0.0999921000329778
