onset	duration	eventnumber	stimulus_file	blockno	trialno	is_faststream	stim	stim_category	category_number	exemplar	exemplar_number	image_name	image_number	aliveness	aliveness_bin	movement	movement_bin	naturalness	naturalness_bin	response_hand_alive	istarget	response	keypressed	rt	correct	time_stimon	time_stimoff	stimdur
63457	100	0	stimuli/animals2/pigeon/animal_pigeon08.jpg      	1	1	1	animal_pigeon08.jpg  	animals2 	1	pigeon    	28	pigeon08    	287	alive    	1	moves	1	natural 	1	n	0	0        	 	0.0	0	50.6351887999917	50.7351801999903	0.0999913999985438
63607	100	1	stimuli/animals2/bee/animal_bee05.jpg            	1	1	1	animal_bee05.jpg     	animals2 	1	bee       	0	bee05       	4	alive    	1	moves	1	natural 	1	n	0	0        	 	0.0	0	50.7851973999932	50.8851830000058	0.0999856000125874
63757	100	2	stimuli/nonmovNat/shell/nmn_shell05.jpg          	1	1	1	nmn_shell05.jpg      	nonmovNat	5	shell     	32	shell05     	324	not_alive	0	still	0	natural 	1	n	0	0        	 	0.0	0	50.935192200006	51.0351887999859	0.0999965999799315
63907	100	3	stimuli/animals/dolphin/animal_dolphin03.jpg     	1	1	1	animal_dolphin03.jpg 	animals  	0	dolphin   	12	dolphin03   	122	alive    	1	moves	1	natural 	1	n	0	0        	 	0.0	0	51.0851972000091	51.185218300001	0.100021099991864
64057	100	4	stimuli/plant2/moss/plant_moss04.jpg             	1	1	1	plant_moss04.jpg     	plant2   	7	moss      	25	moss04      	253	alive    	1	still	0	natural 	1	n	0	0        	 	0.0	0	51.235199399991	51.3352086000086	0.100009200017666
64207	100	5	stimuli/plant/grass/plant_grass03.jpg            	1	1	1	plant_grass03.jpg    	plant    	6	grass     	17	grass03     	172	alive    	1	still	0	natural 	1	n	0	0        	 	0.0	0	51.3852045999956	51.4851995999925	0.0999949999968521
64357	100	6	stimuli/animals/dog/animal_dog02.jpg             	1	1	1	animal_dog02.jpg     	animals  	0	dog       	11	dog02       	111	alive    	1	moves	1	natural 	1	n	0	0        	 	0.0	0	51.5352224000089	51.6352059000055	0.099983499996597
64507	100	7	stimuli/plant2/lemontree/plant_lemontree06.jpg   	1	1	1	plant_lemontree06.jpg	plant2   	7	lemontree 	22	lemontree06 	225	alive    	1	still	0	natural 	1	n	0	0        	 	0.0	0	51.685521700012	51.7852082999889	0.0996865999768488
64657	100	8	stimuli/animals2/pigeon/animal_pigeon03.jpg      	1	1	1	animal_pigeon03.jpg  	animals2 	1	pigeon    	28	pigeon03    	282	alive    	1	moves	1	natural 	1	n	0	0        	 	0.0	0	51.835215500003	51.9352225000039	0.100007000000915
64807	100	9	stimuli/nonmovNat/crystal/nmn_crystal09.jpg      	1	1	1	nmn_crystal09.jpg    	nonmovNat	5	crystal   	10	crystal09   	108	not_alive	0	still	0	natural 	1	n	0	0        	 	0.0	0	51.9852189999947	52.0852191000013	0.100000100006582
64957	100	10	stimuli/movArt/bus/ma_bus04.jpg                  	1	1	1	ma_bus04.jpg         	movArt   	2	bus       	3	bus04       	33	not_alive	0	moves	1	artefact	0	n	0	0        	 	0.0	0	52.1352260000131	52.235219299997	0.0999932999839075
65107	100	11	stimuli/nonmovArt/lock/nma_lock05.jpg            	1	1	1	nma_lock05.jpg       	nonmovArt	4	lock      	24	lock05      	244	not_alive	0	still	0	artefact	0	n	0	0        	 	0.0	0	52.2852284999972	52.385223499994	0.0999949999968521
65257	100	12	stimuli/animals2/bee/animal_bee02.jpg            	1	1	1	animal_bee02.jpg     	animals2 	1	bee       	0	bee02       	1	alive    	1	moves	1	natural 	1	n	0	0        	 	0.0	0	52.4352613000083	52.5352269000141	0.0999656000058167
65407	100	13	stimuli/animals2/lemur/animal_lemur03.jpg        	1	1	1	animal_lemur03.jpg   	animals2 	1	lemur     	23	lemur03     	232	alive    	1	moves	1	natural 	1	n	1	0        	 	0.0	0	52.5852363999875	52.6852343000064	0.0999979000189342
65557	100	14	stimuli/plant2/clover/plant_clover01.jpg         	1	1	1	plant_clover01.jpg   	plant2   	7	clover    	9	clover01    	90	alive    	1	still	0	natural 	1	n	0	0        	 	0.0	0	52.7352405000129	52.8352350000059	0.0999944999930449
65707	100	15	stimuli/movArt/boat/ma_boat04.jpg                	1	1	1	ma_boat04.jpg        	movArt   	2	boat      	2	boat04      	23	not_alive	0	moves	1	artefact	0	n	0	1        	f	0.391998600010993	1	52.8852449000115	52.9852412999899	0.0999963999784086
65857	100	16	stimuli/movNat/hotspring/mn_hotspring03.jpg      	1	1	1	mn_hotspring03.jpg   	movNat   	3	hotspring 	21	hotspring03 	212	not_alive	0	moves	1	natural 	1	n	0	0        	 	0.0	0	53.0352787000011	53.1352456999885	0.0999669999873731
66007	100	17	stimuli/movNat/river/mn_river09.jpg              	1	1	1	mn_river09.jpg       	movNat   	3	river     	29	river09     	298	not_alive	0	moves	1	natural 	1	n	0	0        	 	0.0	0	53.1852767000091	53.2852445000026	0.0999677999934647
66157	100	18	stimuli/nonmovArt/clothespeg/nma_clothespeg07.jpg	1	1	1	nma_clothespeg07.jpg 	nonmovArt	4	clothespeg	8	clothespeg07	86	not_alive	0	still	0	artefact	0	n	0	0        	 	0.0	0	53.3352591999865	53.4352490000019	0.0999898000154644
66307	100	19	stimuli/plant2/lemontree/plant_lemontree04.jpg   	1	1	1	plant_lemontree04.jpg	plant2   	7	lemontree 	22	lemontree04 	223	alive    	1	still	0	natural 	1	n	0	0        	 	0.0	0	53.4852599999867	53.5852663000114	0.100006300024688
66457	100	20	stimuli/movArt/car/ma_car05.jpg                  	1	1	1	ma_car05.jpg         	movArt   	2	car       	5	car05       	54	not_alive	0	moves	1	artefact	0	n	0	0        	 	0.0	0	53.6352785000054	53.7352571999945	0.0999786999891512
66607	100	21	stimuli/movNat/river/mn_river06.jpg              	1	1	1	mn_river06.jpg       	movNat   	3	river     	29	river06     	295	not_alive	0	moves	1	natural 	1	n	0	0        	 	0.0	0	53.7852821999986	53.8852608999878	0.0999786999891512
66757	100	22	stimuli/movNat/fire/mn_fire08.jpg                	1	1	1	mn_fire08.jpg        	movNat   	3	fire      	15	fire08      	157	not_alive	0	moves	1	natural 	1	n	0	0        	 	0.0	0	53.935283800005	54.035266299994	0.0999824999889824
66907	100	23	stimuli/nonmovNat/shell/nmn_shell07.jpg          	1	1	1	nmn_shell07.jpg      	nonmovNat	5	shell     	32	shell07     	326	not_alive	0	still	0	natural 	1	n	0	0        	 	0.0	0	54.0852884000051	54.1852698999865	0.099981499981368
67057	100	24	stimuli/plant2/fern/plant_fern10.jpg             	1	1	1	plant_fern10.jpg     	plant2   	7	fern      	14	fern10      	149	alive    	1	still	0	natural 	1	n	0	0        	 	0.0	0	54.2352776000043	54.3352679999953	0.0999903999909293
67207	100	25	stimuli/plant/grass/plant_grass03.jpg            	1	1	1	plant_grass03.jpg    	plant    	6	grass     	17	grass03     	172	alive    	1	still	0	natural 	1	n	0	0        	 	0.0	0	54.3852767999924	54.48527070001	0.09999390001758
67357	100	26	stimuli/nonmovNat/rock/nmn_rock09.jpg            	1	1	1	nmn_rock09.jpg       	nonmovNat	5	rock      	30	rock09      	308	not_alive	0	still	0	natural 	1	n	0	0        	 	0.0	0	54.5352863000007	54.6352750000078	0.0999887000070885
67507	100	27	stimuli/nonmovArt/bench/nma_bench03.jpg          	1	1	1	nma_bench03.jpg      	nonmovArt	4	bench     	1	bench03     	12	not_alive	0	still	0	artefact	0	n	0	0        	 	0.0	0	54.685284200008	54.7852783999988	0.0999941999907605
67657	100	28	stimuli/nonmovArt/clothespeg/nma_clothespeg03.jpg	1	1	1	nma_clothespeg03.jpg 	nonmovArt	4	clothespeg	8	clothespeg03	82	not_alive	0	still	0	artefact	0	n	0	0        	 	0.0	0	54.8352889000089	54.9353016999958	0.100012799986871
67807	100	29	stimuli/plant2/palmtree/plant_palmtree01.jpg     	1	1	1	plant_palmtree01.jpg 	plant2   	7	palmtree  	27	palmtree01  	270	alive    	1	still	0	natural 	1	n	0	0        	 	0.0	0	54.985293100006	55.0852874999982	0.0999943999922834
67957	100	30	stimuli/movArt/boat/ma_boat05.jpg                	1	1	1	ma_boat05.jpg        	movArt   	2	boat      	2	boat05      	24	not_alive	0	moves	1	artefact	0	n	0	0        	 	0.0	0	55.1352979000076	55.23529099999	0.0999930999823846
68107	100	31	stimuli/nonmovNat/cliff/nmn_cliff07.jpg          	1	1	1	nmn_cliff07.jpg      	nonmovNat	5	cliff     	7	cliff07     	76	not_alive	0	still	0	natural 	1	n	0	0        	 	0.0	0	55.2853012999985	55.3853095000086	0.100008200010052
68257	100	32	stimuli/movNat/fire/mn_fire09.jpg                	1	1	1	mn_fire09.jpg        	movNat   	3	fire      	15	fire09      	158	not_alive	0	moves	1	natural 	1	n	0	0        	 	0.0	0	55.4353051999933	55.5352985000063	0.0999933000130113
68407	100	33	stimuli/plant/tree/plant_tree02.jpg              	1	1	1	plant_tree02.jpg     	plant    	6	tree      	35	tree02      	351	alive    	1	still	0	natural 	1	n	0	0        	 	0.0	0	55.5853097999934	55.6853017999965	0.0999920000031125
68557	100	34	stimuli/plant2/palmtree/plant_palmtree05.jpg     	1	1	1	plant_palmtree05.jpg 	plant2   	7	palmtree  	27	palmtree05  	274	alive    	1	still	0	natural 	1	n	0	0        	 	0.0	0	55.7353162000072	55.835307900008	0.0999917000008281
68707	100	35	stimuli/plant/tree/plant_tree09.jpg              	1	1	1	plant_tree09.jpg     	plant    	6	tree      	35	tree09      	358	alive    	1	still	0	natural 	1	n	0	0        	 	0.0	0	55.885316800006	55.9853098999884	0.0999930999823846
68857	100	36	stimuli/plant/flower/plant_flower10.jpg          	1	1	1	plant_flower10.jpg   	plant    	6	flower    	16	flower10    	169	alive    	1	still	0	natural 	1	n	1	0        	 	0.0	0	56.0353193999908	56.135345799994	0.100026400003117
69007	100	37	stimuli/nonmovArt/lock/nma_lock09.jpg            	1	1	1	nma_lock09.jpg       	nonmovArt	4	lock      	24	lock09      	248	not_alive	0	still	0	artefact	0	n	0	0        	 	0.0	0	56.1853256000031	56.2853178000078	0.0999922000046354
69157	100	38	stimuli/movArt/helicopter/ma_helicopter05.jpg    	1	1	1	ma_helicopter05.jpg  	movArt   	2	helicopter	19	helicopter05	194	not_alive	0	moves	1	artefact	0	n	0	1        	f	0.391991300013615	1	56.3353310000093	56.4353231000132	0.0999921000038739
69307	100	39	stimuli/movNat/waves/mn_waves04.jpg              	1	1	1	mn_waves04.jpg       	movNat   	3	waves     	38	waves04     	383	not_alive	0	moves	1	natural 	1	n	0	0        	 	0.0	0	56.4853520999895	56.5853569000028	0.100004800013267
69457	100	40	stimuli/plant2/clover/plant_clover06.jpg         	1	1	1	plant_clover06.jpg   	plant2   	7	clover    	9	clover06    	95	alive    	1	still	0	natural 	1	n	0	0        	 	0.0	0	56.6353637999855	56.7353531999979	0.0999894000124186
69607	100	41	stimuli/movArt/car/ma_car07.jpg                  	1	1	1	ma_car07.jpg         	movArt   	2	car       	5	car07       	56	not_alive	0	moves	1	artefact	0	n	0	0        	 	0.0	0	56.7853542999947	56.8853761999926	0.100021899997955
69757	100	42	stimuli/animals2/tiger/animal_tiger06.jpg        	1	1	1	animal_tiger06.jpg   	animals2 	1	tiger     	33	tiger06     	335	alive    	1	moves	1	natural 	1	n	0	0        	 	0.0	0	56.9353639000037	57.0353449000104	0.0999810000066645
69907	100	43	stimuli/movArt/train/ma_train06.jpg              	1	1	1	ma_train06.jpg       	movArt   	2	train     	34	train06     	345	not_alive	0	moves	1	artefact	0	n	0	0        	 	0.0	0	57.0853692000091	57.1853648000106	0.0999956000014208
70057	100	44	stimuli/plant2/fern/plant_fern02.jpg             	1	1	1	plant_fern02.jpg     	plant2   	7	fern      	14	fern02      	141	alive    	1	still	0	natural 	1	n	1	0        	 	0.0	0	57.2353587000107	57.335376300005	0.100017599994317
70207	100	45	stimuli/plant/vine/plant_vine09.jpg              	1	1	1	plant_vine09.jpg     	plant    	6	vine      	36	vine09      	368	alive    	1	still	0	natural 	1	n	0	0        	 	0.0	0	57.3853840999945	57.4853793999937	0.0999952999991365
70357	100	46	stimuli/nonmovNat/cliff/nmn_cliff10.jpg          	1	1	1	nmn_cliff10.jpg      	nonmovNat	5	cliff     	7	cliff10     	79	not_alive	0	still	0	natural 	1	n	0	0        	 	0.0	0	57.535373199993	57.6353852000029	0.100012000009883
70507	100	47	stimuli/nonmovArt/mug/nma_mug08.jpg              	1	1	1	nma_mug08.jpg        	nonmovArt	4	mug       	26	mug08       	267	not_alive	0	still	0	artefact	0	n	0	1        	f	0.542002499976661	1	57.6853779999947	57.785372399987	0.0999943999922834
70657	100	48	stimuli/plant2/lemontree/plant_lemontree01.jpg   	1	1	1	plant_lemontree01.jpg	plant2   	7	lemontree 	22	lemontree01 	220	alive    	1	still	0	natural 	1	n	0	0        	 	0.0	0	57.8353807000094	57.9353713000019	0.0999905999924522
70807	100	49	stimuli/plant2/moss/plant_moss04.jpg             	1	1	1	plant_moss04.jpg     	plant2   	7	moss      	25	moss04      	253	alive    	1	still	0	natural 	1	n	0	0        	 	0.0	0	57.9853783999861	58.0853706999915	0.0999923000053968
70957	100	50	stimuli/movNat/waterfall/mn_waterfall03.jpg      	1	1	1	mn_waterfall03.jpg   	movNat   	3	waterfall 	37	waterfall03 	372	not_alive	0	moves	1	natural 	1	n	0	0        	 	0.0	0	58.1353853000037	58.2353776000091	0.0999923000053968
71107	100	51	stimuli/animals/horse/animal_horse01.jpg         	1	1	1	animal_horse01.jpg   	animals  	0	horse     	20	horse01     	200	alive    	1	moves	1	natural 	1	n	0	0        	 	0.0	0	58.2853848999948	58.3853741000057	0.0999892000108957
71257	100	52	stimuli/animals/horse/animal_horse08.jpg         	1	1	1	animal_horse08.jpg   	animals  	0	horse     	20	horse08     	207	alive    	1	moves	1	natural 	1	n	0	0        	 	0.0	0	58.4353843000135	58.5353780000005	0.0999936999869533
71407	100	53	stimuli/animals2/bee/animal_bee06.jpg            	1	1	1	animal_bee06.jpg     	animals2 	1	bee       	0	bee06       	5	alive    	1	moves	1	natural 	1	n	0	0        	 	0.0	0	58.5854000000108	58.6853827000014	0.0999826999905054
71557	100	54	stimuli/plant2/moss/plant_moss06.jpg             	1	1	1	plant_moss06.jpg     	plant2   	7	moss      	25	moss06      	255	alive    	1	still	0	natural 	1	n	0	0        	 	0.0	0	58.7353935000137	58.8353883000091	0.0999947999953292
71707	100	55	stimuli/nonmovArt/bench/nma_bench04.jpg          	1	1	1	nma_bench04.jpg      	nonmovArt	4	bench     	1	bench04     	13	not_alive	0	still	0	artefact	0	n	0	0        	 	0.0	0	58.8853965000017	58.9853988999967	0.100002399994992
71857	100	56	stimuli/plant/flower/plant_flower06.jpg          	1	1	1	plant_flower06.jpg   	plant    	6	flower    	16	flower06    	165	alive    	1	still	0	natural 	1	n	0	0        	 	0.0	0	59.0354006999987	59.135395099991	0.0999943999922834
72007	100	57	stimuli/animals/horse/animal_horse04.jpg         	1	1	1	animal_horse04.jpg   	animals  	0	horse     	20	horse04     	203	alive    	1	moves	1	natural 	1	n	0	0        	 	0.0	0	59.1854199999943	59.2853985000111	0.0999785000167321
72157	100	58	stimuli/movNat/fire/mn_fire06.jpg                	1	1	1	mn_fire06.jpg        	movNat   	3	fire      	15	fire06      	155	not_alive	0	moves	1	natural 	1	n	0	0        	 	0.0	0	59.3354104000027	59.4354032000119	0.0999928000092041
72307	100	59	stimuli/movNat/waves/mn_waves09.jpg              	1	1	1	mn_waves09.jpg       	movNat   	3	waves     	38	waves09     	388	not_alive	0	moves	1	natural 	1	n	0	0        	 	0.0	0	59.4854123000114	59.5854070000059	0.0999946999945678
72457	100	60	stimuli/animals/dolphin/animal_dolphin10.jpg     	1	1	1	animal_dolphin10.jpg 	animals  	0	dolphin   	12	dolphin10   	129	alive    	1	moves	1	natural 	1	n	0	0        	 	0.0	0	59.6354181999923	59.7354092999885	0.0999910999962594
72607	100	61	stimuli/nonmovNat/shell/nmn_shell03.jpg          	1	1	1	nmn_shell03.jpg      	nonmovNat	5	shell     	32	shell03     	322	not_alive	0	still	0	natural 	1	n	0	0        	 	0.0	0	59.7854200000002	59.8854154000001	0.0999953999998979
72757	100	62	stimuli/plant2/clover/plant_clover07.jpg         	1	1	1	plant_clover07.jpg   	plant2   	7	clover    	9	clover07    	96	alive    	1	still	0	natural 	1	n	0	0        	 	0.0	0	59.9354257000086	60.0354170000064	0.0999912999977823
72907	100	63	stimuli/movNat/hotspring/mn_hotspring04.jpg      	1	1	1	mn_hotspring04.jpg   	movNat   	3	hotspring 	21	hotspring04 	213	not_alive	0	moves	1	natural 	1	n	0	0        	 	0.0	0	60.0854285999958	60.1854396999988	0.10001110000303
73057	100	64	stimuli/animals/dog/animal_dog01.jpg             	1	1	1	animal_dog01.jpg     	animals  	0	dog       	11	dog01       	110	alive    	1	moves	1	natural 	1	n	0	0        	 	0.0	0	60.2354326999921	60.3354274999874	0.0999947999953292
73207	100	65	stimuli/animals2/tiger/animal_tiger05.jpg        	1	1	1	animal_tiger05.jpg   	animals2 	1	tiger     	33	tiger05     	334	alive    	1	moves	1	natural 	1	n	0	0        	 	0.0	0	60.3854361000122	60.4854286999907	0.0999925999785774
73357	100	66	stimuli/plant/vine/plant_vine04.jpg              	1	1	1	plant_vine04.jpg     	plant    	6	vine      	36	vine04      	363	alive    	1	still	0	natural 	1	n	0	0        	 	0.0	0	60.5354412999877	60.6354346000007	0.0999933000130113
73507	100	67	stimuli/nonmovNat/sand/nmn_sand10.jpg            	1	1	1	nmn_sand10.jpg       	nonmovNat	5	sand      	31	sand10      	319	not_alive	0	still	0	natural 	1	n	0	0        	 	0.0	0	60.6854447000078	60.7854374999879	0.0999927999801002
73657	100	68	stimuli/animals2/tiger/animal_tiger07.jpg        	1	1	1	animal_tiger07.jpg   	animals2 	1	tiger     	33	tiger07     	336	alive    	1	moves	1	natural 	1	n	0	0        	 	0.0	0	60.8354501999856	60.9354423999903	0.0999922000046354
73807	100	69	stimuli/animals/cat/animal_cat10.jpg             	1	1	1	animal_cat10.jpg     	animals  	0	cat       	6	cat10       	69	alive    	1	moves	1	natural 	1	n	0	0        	 	0.0	0	60.9854544000118	61.0854452000058	0.0999907999939751
73957	100	70	stimuli/animals/dolphin/animal_dolphin07.jpg     	1	1	1	animal_dolphin07.jpg 	animals  	0	dolphin   	12	dolphin07   	126	alive    	1	moves	1	natural 	1	n	0	0        	 	0.0	0	61.1354580000043	61.2354509999859	0.0999929999816231
74107	100	71	stimuli/nonmovArt/headphones/nma_headphones09.jpg	1	1	1	nma_headphones09.jpg 	nonmovArt	4	headphones	18	headphones09	188	not_alive	0	still	0	artefact	0	n	0	0        	 	0.0	0	61.2854594000091	61.3854543000052	0.0999948999960907
74257	100	72	stimuli/nonmovNat/sand/nmn_sand01.jpg            	1	1	1	nmn_sand01.jpg       	nonmovNat	5	sand      	31	sand01      	310	not_alive	0	still	0	natural 	1	n	0	0        	 	0.0	0	61.4354644000123	61.5354575999954	0.099993199983146
74407	100	73	stimuli/animals/eagle/animal_eagle01.jpg         	1	1	1	animal_eagle01.jpg   	animals  	0	eagle     	13	eagle01     	130	alive    	1	moves	1	natural 	1	n	0	0        	 	0.0	0	61.5854684000078	61.6854601000086	0.0999917000008281
74557	100	74	stimuli/nonmovArt/mug/nma_mug02.jpg              	1	1	1	nma_mug02.jpg        	nonmovArt	4	mug       	26	mug02       	261	not_alive	0	still	0	artefact	0	n	0	0        	 	0.0	0	61.735491200001	61.8354660999903	0.09997489998932
74707	100	75	stimuli/animals2/whale/animal_whale03.jpg        	1	1	1	animal_whale03.jpg   	animals2 	1	whale     	39	whale03     	392	alive    	1	moves	1	natural 	1	n	0	0        	 	0.0	0	61.8854812000063	61.9854693000089	0.0999881000025198
74857	100	76	stimuli/animals2/whale/animal_whale08.jpg        	1	1	1	animal_whale08.jpg   	animals2 	1	whale     	39	whale08     	397	alive    	1	moves	1	natural 	1	n	0	0        	 	0.0	0	62.0354821000074	62.1354745999852	0.0999924999778159
75007	100	77	stimuli/movArt/train/ma_train09.jpg              	1	1	1	ma_train09.jpg       	movArt   	2	train     	34	train09     	348	not_alive	0	moves	1	artefact	0	n	0	0        	 	0.0	0	62.1854863000044	62.28547599999	0.0999896999855992
75157	100	78	stimuli/movArt/helicopter/ma_helicopter03.jpg    	1	1	1	ma_helicopter03.jpg  	movArt   	2	helicopter	19	helicopter03	192	not_alive	0	moves	1	artefact	0	n	0	0        	 	0.0	0	62.3354886999878	62.4354824000038	0.0999937000160571
75307	100	79	stimuli/animals/cat/animal_cat10.jpg             	1	1	1	animal_cat10.jpg     	animals  	0	cat       	6	cat10       	69	alive    	1	moves	1	natural 	1	n	0	0        	 	0.0	0	62.4854925000109	62.5854853999917	0.0999928999808617
79607	100	80	stimuli/nonmovArt/mug/nma_mug09.jpg              	1	2	1	nma_mug09.jpg        	nonmovArt	4	mug       	26	mug09       	268	not_alive	0	still	0	artefact	0	n	0	0        	 	0.0	0	66.7856129000138	66.8856052999909	0.0999923999770544
79757	100	81	stimuli/plant/cactus/plant_cactus02.jpg          	1	2	1	plant_cactus02.jpg   	plant    	6	cactus    	4	cactus02    	41	alive    	1	still	0	natural 	1	n	0	0        	 	0.0	0	66.9356168000086	67.0356099999917	0.099993199983146
79907	100	82	stimuli/animals/dog/animal_dog05.jpg             	1	2	1	animal_dog05.jpg     	animals  	0	dog       	11	dog05       	114	alive    	1	moves	1	natural 	1	n	0	0        	 	0.0	0	67.0856221999857	67.1856141999888	0.0999920000031125
80057	100	83	stimuli/nonmovNat/rock/nmn_rock02.jpg            	1	2	1	nmn_rock02.jpg       	nonmovNat	5	rock      	30	rock02      	301	not_alive	0	still	0	natural 	1	n	0	0        	 	0.0	0	67.2356261000095	67.3356189999904	0.0999928999808617
80207	100	84	stimuli/plant/grass/plant_grass09.jpg            	1	2	1	plant_grass09.jpg    	plant    	6	grass     	17	grass09     	178	alive    	1	still	0	natural 	1	n	0	0        	 	0.0	0	67.3856261000037	67.4856219000067	0.0999958000029437
80357	100	85	stimuli/plant/vine/plant_vine09.jpg              	1	2	1	plant_vine09.jpg     	plant    	6	vine      	36	vine09      	368	alive    	1	still	0	natural 	1	n	0	0        	 	0.0	0	67.5356344000029	67.6356326999958	0.0999982999928761
80507	100	86	stimuli/movArt/car/ma_car10.jpg                  	1	2	1	ma_car10.jpg         	movArt   	2	car       	5	car10       	59	not_alive	0	moves	1	artefact	0	n	0	0        	 	0.0	0	67.6856377999939	67.7856305000023	0.0999927000084426
80657	100	87	stimuli/movArt/bus/ma_bus10.jpg                  	1	2	1	ma_bus10.jpg         	movArt   	2	bus       	3	bus10       	39	not_alive	0	moves	1	artefact	0	n	0	0        	 	0.0	0	67.8356406000094	67.9356333999895	0.0999927999801002
80807	100	88	stimuli/plant2/fern/plant_fern07.jpg             	1	2	1	plant_fern07.jpg     	plant2   	7	fern      	14	fern07      	146	alive    	1	still	0	natural 	1	n	0	0        	 	0.0	0	67.9856381000136	68.0856475000037	0.100009399990086
80957	100	89	stimuli/animals2/lemur/animal_lemur05.jpg        	1	2	1	animal_lemur05.jpg   	animals2 	1	lemur     	23	lemur05     	234	alive    	1	moves	1	natural 	1	n	0	0        	 	0.0	0	68.135663699999	68.23563499999	0.0999712999910116
81107	100	90	stimuli/nonmovNat/sand/nmn_sand08.jpg            	1	2	1	nmn_sand08.jpg       	nonmovNat	5	sand      	31	sand08      	317	not_alive	0	still	0	natural 	1	n	0	0        	 	0.0	0	68.2856447999948	68.3856451000029	0.100000300008105
81257	100	91	stimuli/plant/tree/plant_tree10.jpg              	1	2	1	plant_tree10.jpg     	plant    	6	tree      	35	tree10      	359	alive    	1	still	0	natural 	1	n	0	0        	 	0.0	0	68.4356565999915	68.5356551999866	0.0999985999951605
81407	100	92	stimuli/animals/eagle/animal_eagle07.jpg         	1	2	1	animal_eagle07.jpg   	animals  	0	eagle     	13	eagle07     	136	alive    	1	moves	1	natural 	1	n	0	0        	 	0.0	0	68.5856722999888	68.6856519999856	0.0999796999967657
81557	100	93	stimuli/movNat/waterfall/mn_waterfall01.jpg      	1	2	1	mn_waterfall01.jpg   	movNat   	3	waterfall 	37	waterfall01 	370	not_alive	0	moves	1	natural 	1	n	0	0        	 	0.0	0	68.7356641000079	68.8356570999895	0.0999929999816231
81707	100	94	stimuli/nonmovNat/rock/nmn_rock06.jpg            	1	2	1	nmn_rock06.jpg       	nonmovNat	5	rock      	30	rock06      	305	not_alive	0	still	0	natural 	1	n	0	0        	 	0.0	0	68.8856689000095	68.9856626999972	0.0999937999877147
81857	100	95	stimuli/movNat/river/mn_river06.jpg              	1	2	1	mn_river06.jpg       	movNat   	3	river     	29	river06     	295	not_alive	0	moves	1	natural 	1	n	0	0        	 	0.0	0	69.0356720999989	69.1356657999859	0.0999936999869533
82007	100	96	stimuli/animals2/lemur/animal_lemur07.jpg        	1	2	1	animal_lemur07.jpg   	animals2 	1	lemur     	23	lemur07     	236	alive    	1	moves	1	natural 	1	n	0	0        	 	0.0	0	69.1856751999876	69.2856692000059	0.0999940000183415
82157	100	97	stimuli/movArt/boat/ma_boat10.jpg                	1	2	1	ma_boat10.jpg        	movArt   	2	boat      	2	boat10      	29	not_alive	0	moves	1	artefact	0	n	0	0        	 	0.0	0	69.3356810999976	69.4356719999923	0.0999908999947365
82307	100	98	stimuli/movArt/train/ma_train09.jpg              	1	2	1	ma_train09.jpg       	movArt   	2	train     	34	train09     	348	not_alive	0	moves	1	artefact	0	n	0	0        	 	0.0	0	69.485686	69.5856779000024	0.099991900002351
82457	100	99	stimuli/nonmovNat/crystal/nmn_crystal03.jpg      	1	2	1	nmn_crystal03.jpg    	nonmovNat	5	crystal   	10	crystal03   	102	not_alive	0	still	0	natural 	1	n	0	0        	 	0.0	0	69.6356950000045	69.7356816999963	0.0999866999918595
82607	100	100	stimuli/nonmovArt/headphones/nma_headphones02.jpg	1	2	1	nma_headphones02.jpg 	nonmovArt	4	headphones	18	headphones02	181	not_alive	0	still	0	artefact	0	n	0	0        	 	0.0	0	69.7856938999903	69.8856847000134	0.0999908000230789
82757	100	101	stimuli/movNat/waves/mn_waves09.jpg              	1	2	1	mn_waves09.jpg       	movNat   	3	waves     	38	waves09     	388	not_alive	0	moves	1	natural 	1	n	0	0        	 	0.0	0	69.9356956999982	70.0356877000013	0.0999920000031125
82907	100	102	stimuli/nonmovNat/cliff/nmn_cliff07.jpg          	1	2	1	nmn_cliff07.jpg      	nonmovNat	5	cliff     	7	cliff07     	76	not_alive	0	still	0	natural 	1	n	0	0        	 	0.0	0	70.0857082000002	70.1857037000009	0.0999955000006594
83057	100	103	stimuli/movArt/helicopter/ma_helicopter06.jpg    	1	2	1	ma_helicopter06.jpg  	movArt   	2	helicopter	19	helicopter06	195	not_alive	0	moves	1	artefact	0	n	0	0        	 	0.0	0	70.2357046999969	70.3356976000068	0.0999929000099655
83207	100	104	stimuli/movArt/bus/ma_bus03.jpg                  	1	2	1	ma_bus03.jpg         	movArt   	2	bus       	3	bus03       	32	not_alive	0	moves	1	artefact	0	n	0	0        	 	0.0	0	70.3857081999886	70.4857000999909	0.099991900002351
83357	100	105	stimuli/plant/cactus/plant_cactus01.jpg          	1	2	1	plant_cactus01.jpg   	plant    	6	cactus    	4	cactus01    	40	alive    	1	still	0	natural 	1	n	0	0        	 	0.0	0	70.5357120000117	70.6357152000128	0.100003200001083
83507	100	106	stimuli/animals/cat/animal_cat09.jpg             	1	2	1	animal_cat09.jpg     	animals  	0	cat       	6	cat09       	68	alive    	1	moves	1	natural 	1	n	0	0        	 	0.0	0	70.6857175999903	70.7857083000126	0.0999907000223175
83657	100	107	stimuli/nonmovArt/clothespeg/nma_clothespeg09.jpg	1	2	1	nma_clothespeg09.jpg 	nonmovArt	4	clothespeg	8	clothespeg09	88	not_alive	0	still	0	artefact	0	n	0	0        	 	0.0	0	70.8357207000081	70.935713999992	0.0999932999839075
83807	100	108	stimuli/plant/flower/plant_flower05.jpg          	1	2	1	plant_flower05.jpg   	plant    	6	flower    	16	flower05    	164	alive    	1	still	0	natural 	1	n	1	0        	 	0.0	0	70.9857264999882	71.0857264999941	0.100000000005821
83957	100	109	stimuli/nonmovNat/crystal/nmn_crystal04.jpg      	1	2	1	nmn_crystal04.jpg    	nonmovNat	5	crystal   	10	crystal04   	103	not_alive	0	still	0	natural 	1	n	0	0        	 	0.0	0	71.1357272999885	71.2357211000053	0.0999938000168186
84107	100	110	stimuli/nonmovArt/lock/nma_lock07.jpg            	1	2	1	nma_lock07.jpg       	nonmovArt	4	lock      	24	lock07      	246	not_alive	0	still	0	artefact	0	n	0	1        	f	0.292183800018393	1	71.2857322999917	71.3857358999958	0.100003600004129
84257	100	111	stimuli/nonmovArt/headphones/nma_headphones04.jpg	1	2	1	nma_headphones04.jpg 	nonmovArt	4	headphones	18	headphones04	183	not_alive	0	still	0	artefact	0	n	0	0        	 	0.0	0	71.4357491999981	71.5357298000017	0.0999806000036188
84407	100	112	stimuli/animals/eagle/animal_eagle01.jpg         	1	2	1	animal_eagle01.jpg   	animals  	0	eagle     	13	eagle01     	130	alive    	1	moves	1	natural 	1	n	0	0        	 	0.0	0	71.5857388000004	71.6857307000028	0.099991900002351
84557	100	113	stimuli/plant/cactus/plant_cactus05.jpg          	1	2	1	plant_cactus05.jpg   	plant    	6	cactus    	4	cactus05    	44	alive    	1	still	0	natural 	1	n	0	0        	 	0.0	0	71.7357426999952	71.8357368999859	0.0999941999907605
84707	100	114	stimuli/animals2/whale/animal_whale05.jpg        	1	2	1	animal_whale05.jpg   	animals2 	1	whale     	39	whale05     	394	alive    	1	moves	1	natural 	1	n	0	0        	 	0.0	0	71.8857476999983	71.9857391999976	0.0999914999993052
84857	100	115	stimuli/plant2/palmtree/plant_palmtree05.jpg     	1	2	1	plant_palmtree05.jpg 	plant2   	7	palmtree  	27	palmtree05  	274	alive    	1	still	0	natural 	1	n	0	0        	 	0.0	0	72.0357520999969	72.1357470999938	0.0999949999968521
85007	100	116	stimuli/nonmovArt/bench/nma_bench10.jpg          	1	2	1	nma_bench10.jpg      	nonmovArt	4	bench     	1	bench10     	19	not_alive	0	still	0	artefact	0	n	0	0        	 	0.0	0	72.185756299994	72.2857494000054	0.0999931000114884
85157	100	117	stimuli/movNat/hotspring/mn_hotspring07.jpg      	1	2	1	mn_hotspring07.jpg   	movNat   	3	hotspring 	21	hotspring07 	216	not_alive	0	moves	1	natural 	1	n	0	0        	 	0.0	0	72.3357623000047	72.4357540000055	0.0999917000008281
85307	100	118	stimuli/movNat/waterfall/mn_waterfall06.jpg      	1	2	1	mn_waterfall06.jpg   	movNat   	3	waterfall 	37	waterfall06 	375	not_alive	0	moves	1	natural 	1	n	0	0        	 	0.0	0	72.4857644999865	72.5857552000089	0.0999907000223175
85457	100	119	stimuli/animals2/pigeon/animal_pigeon03.jpg      	1	2	1	animal_pigeon03.jpg  	animals2 	1	pigeon    	28	pigeon03    	282	alive    	1	moves	1	natural 	1	n	0	0        	 	0.0	0	72.6357742999971	72.7357593000052	0.0999850000080187
85607	100	120	stimuli/plant/cactus/plant_cactus04.jpg          	1	2	1	plant_cactus04.jpg   	plant    	6	cactus    	4	cactus04    	43	alive    	1	still	0	natural 	1	n	0	0        	 	0.0	0	72.7857760000043	72.8857716000057	0.0999956000014208
85757	100	121	stimuli/animals/dolphin/animal_dolphin06.jpg     	1	2	1	animal_dolphin06.jpg 	animals  	0	dolphin   	12	dolphin06   	125	alive    	1	moves	1	natural 	1	n	0	0        	 	0.0	0	72.9357754999946	73.0357699999877	0.0999944999930449
85907	100	122	stimuli/plant/vine/plant_vine04.jpg              	1	2	1	plant_vine04.jpg     	plant    	6	vine      	36	vine04      	363	alive    	1	still	0	natural 	1	n	0	0        	 	0.0	0	73.0857784000109	73.1857710999902	0.0999926999793388
86057	100	123	stimuli/animals/cat/animal_cat08.jpg             	1	2	1	animal_cat08.jpg     	animals  	0	cat       	6	cat08       	67	alive    	1	moves	1	natural 	1	n	0	0        	 	0.0	0	73.2357818000019	73.3357761999941	0.0999943999922834
86207	100	124	stimuli/movNat/waterfall/mn_waterfall09.jpg      	1	2	1	mn_waterfall09.jpg   	movNat   	3	waterfall 	37	waterfall09 	378	not_alive	0	moves	1	natural 	1	n	0	0        	 	0.0	0	73.3857873000088	73.4857810999965	0.0999937999877147
86357	100	125	stimuli/nonmovArt/bench/nma_bench05.jpg          	1	2	1	nma_bench05.jpg      	nonmovArt	4	bench     	1	bench05     	14	not_alive	0	still	0	artefact	0	n	0	0        	 	0.0	0	73.5357916000066	73.6357908000064	0.0999991999997292
86507	100	126	stimuli/movNat/fire/mn_fire01.jpg                	1	2	1	mn_fire01.jpg        	movNat   	3	fire      	15	fire01      	150	not_alive	0	moves	1	natural 	1	n	0	0        	 	0.0	0	73.6858072000032	73.7857881000091	0.0999809000059031
86657	100	127	stimuli/nonmovNat/rock/nmn_rock05.jpg            	1	2	1	nmn_rock05.jpg       	nonmovNat	5	rock      	30	rock05      	304	not_alive	0	still	0	natural 	1	n	1	0        	 	0.0	0	73.8358001000015	73.935791099997	0.099990999995498
86808	100	128	stimuli/animals/eagle/animal_eagle08.jpg         	1	2	1	animal_eagle08.jpg   	animals  	0	eagle     	13	eagle08     	137	alive    	1	moves	1	natural 	1	n	0	0        	 	0.0	0	73.9858071999916	74.0857999	0.0999927000084426
86957	100	129	stimuli/plant/grass/plant_grass09.jpg            	1	2	1	plant_grass09.jpg    	plant    	6	grass     	17	grass09     	178	alive    	1	still	0	natural 	1	n	0	1        	f	0.391982300003292	1	74.1358051999996	74.2358018000086	0.0999966000090353
87107	100	130	stimuli/plant2/lemontree/plant_lemontree09.jpg   	1	2	1	plant_lemontree09.jpg	plant2   	7	lemontree 	22	lemontree09 	228	alive    	1	still	0	natural 	1	n	0	0        	 	0.0	0	74.2858102000027	74.385806300008	0.0999961000052281
87258	100	131	stimuli/movNat/fire/mn_fire06.jpg                	1	2	1	mn_fire06.jpg        	movNat   	3	fire      	15	fire06      	155	not_alive	0	moves	1	natural 	1	n	0	0        	 	0.0	0	74.435817199992	74.5358092999959	0.0999921000038739
87408	100	132	stimuli/plant/grass/plant_grass04.jpg            	1	2	1	plant_grass04.jpg    	plant    	6	grass     	17	grass04     	173	alive    	1	still	0	natural 	1	n	0	0        	 	0.0	0	74.5858195000037	74.6858136999945	0.0999941999907605
87558	100	133	stimuli/plant2/lemontree/plant_lemontree02.jpg   	1	2	1	plant_lemontree02.jpg	plant2   	7	lemontree 	22	lemontree02 	221	alive    	1	still	0	natural 	1	n	0	0        	 	0.0	0	74.7358222999901	74.83581769999	0.0999953999998979
87708	100	134	stimuli/animals2/whale/animal_whale10.jpg        	1	2	1	animal_whale10.jpg   	animals2 	1	whale     	39	whale10     	399	alive    	1	moves	1	natural 	1	n	0	0        	 	0.0	0	74.8858299000131	74.9858229999954	0.0999930999823846
87858	100	135	stimuli/plant2/moss/plant_moss05.jpg             	1	2	1	plant_moss05.jpg     	plant2   	7	moss      	25	moss05      	254	alive    	1	still	0	natural 	1	n	1	0        	 	0.0	0	75.0358310999873	75.1358226999873	0.0999916000000667
88008	100	136	stimuli/movArt/car/ma_car02.jpg                  	1	2	1	ma_car02.jpg         	movArt   	2	car       	5	car02       	51	not_alive	0	moves	1	artefact	0	n	1	0        	 	0.0	0	75.1858362999919	75.2858388999884	0.100002599996515
88158	100	137	stimuli/movArt/bus/ma_bus06.jpg                  	1	2	1	ma_bus06.jpg         	movArt   	2	bus       	3	bus06       	35	not_alive	0	moves	1	artefact	0	n	0	1        	f	0.241974200005643	1	75.3358401999867	75.4358319999883	0.0999918000015896
88308	100	138	stimuli/animals/dolphin/animal_dolphin02.jpg     	1	2	1	animal_dolphin02.jpg 	animals  	0	dolphin   	12	dolphin02   	121	alive    	1	moves	1	natural 	1	n	0	0        	 	0.0	0	75.4858453999914	75.5858372999937	0.099991900002351
88458	100	139	stimuli/plant2/fern/plant_fern08.jpg             	1	2	1	plant_fern08.jpg     	plant2   	7	fern      	14	fern08      	147	alive    	1	still	0	natural 	1	n	0	0        	 	0.0	0	75.6358539999928	75.73584139999	0.0999873999971896
88608	100	140	stimuli/movArt/helicopter/ma_helicopter08.jpg    	1	2	1	ma_helicopter08.jpg  	movArt   	2	helicopter	19	helicopter08	197	not_alive	0	moves	1	artefact	0	n	0	0        	 	0.0	0	75.7858525000047	75.8858554000035	0.100002899998799
88758	100	141	stimuli/animals/dog/animal_dog05.jpg             	1	2	1	animal_dog05.jpg     	animals  	0	dog       	11	dog05       	114	alive    	1	moves	1	natural 	1	n	0	0        	 	0.0	0	75.9358539000095	76.0358478999988	0.0999939999892376
88908	100	142	stimuli/nonmovNat/sand/nmn_sand03.jpg            	1	2	1	nmn_sand03.jpg       	nonmovNat	5	sand      	31	sand03      	312	not_alive	0	still	0	natural 	1	n	0	0        	 	0.0	0	76.085857500002	76.1858514999913	0.0999939999892376
89058	100	143	stimuli/plant/tree/plant_tree06.jpg              	1	2	1	plant_tree06.jpg     	plant    	6	tree      	35	tree06      	355	alive    	1	still	0	natural 	1	n	0	0        	 	0.0	0	76.2358629000082	76.335855399986	0.0999924999778159
89208	100	144	stimuli/nonmovNat/crystal/nmn_crystal04.jpg      	1	2	1	nmn_crystal04.jpg    	nonmovNat	5	crystal   	10	crystal04   	103	not_alive	0	still	0	natural 	1	n	0	0        	 	0.0	0	76.3858653999923	76.4858794999891	0.10001409999677
89358	100	145	stimuli/plant2/moss/plant_moss02.jpg             	1	2	1	plant_moss02.jpg     	plant2   	7	moss      	25	moss02      	251	alive    	1	still	0	natural 	1	n	0	0        	 	0.0	0	76.5359030000109	76.6358730999928	0.0999700999818742
89508	100	146	stimuli/movNat/river/mn_river02.jpg              	1	2	1	mn_river02.jpg       	movNat   	3	river     	29	river02     	291	not_alive	0	moves	1	natural 	1	n	0	0        	 	0.0	0	76.6858758000017	76.7858690999856	0.0999932999839075
89658	100	147	stimuli/movArt/car/ma_car01.jpg                  	1	2	1	ma_car01.jpg         	movArt   	2	car       	5	car01       	50	not_alive	0	moves	1	artefact	0	n	0	0        	 	0.0	0	76.8358776000096	76.9358728000079	0.099995199998375
89808	100	148	stimuli/nonmovArt/bench/nma_bench07.jpg          	1	2	1	nma_bench07.jpg      	nonmovArt	4	bench     	1	bench07     	16	not_alive	0	still	0	artefact	0	n	0	0        	 	0.0	0	76.9858813000028	77.0858756999951	0.0999943999922834
89958	100	149	stimuli/movArt/bus/ma_bus02.jpg                  	1	2	1	ma_bus02.jpg         	movArt   	2	bus       	3	bus02       	31	not_alive	0	moves	1	artefact	0	n	0	0        	 	0.0	0	77.1358886999951	77.2358810000005	0.0999923000053968
90108	100	150	stimuli/animals/cat/animal_cat03.jpg             	1	2	1	animal_cat03.jpg     	animals  	0	cat       	6	cat03       	62	alive    	1	moves	1	natural 	1	n	0	0        	 	0.0	0	77.2858913000091	77.3858851999976	0.0999938999884762
90258	100	151	stimuli/animals/dog/animal_dog09.jpg             	1	2	1	animal_dog09.jpg     	animals  	0	dog       	11	dog09       	118	alive    	1	moves	1	natural 	1	n	0	0        	 	0.0	0	77.4358935999917	77.5358925999899	0.0999989999982063
90408	100	152	stimuli/movNat/hotspring/mn_hotspring05.jpg      	1	2	1	mn_hotspring05.jpg   	movNat   	3	hotspring 	21	hotspring05 	214	not_alive	0	moves	1	natural 	1	n	0	0        	 	0.0	0	77.5859004000085	77.6858918000071	0.0999913999985438
90558	100	153	stimuli/movNat/waterfall/mn_waterfall04.jpg      	1	2	1	mn_waterfall04.jpg   	movNat   	3	waterfall 	37	waterfall04 	373	not_alive	0	moves	1	natural 	1	n	0	0        	 	0.0	0	77.7359025999904	77.8358950999973	0.0999925000069197
90708	100	154	stimuli/animals/horse/animal_horse05.jpg         	1	2	1	animal_horse05.jpg   	animals  	0	horse     	20	horse05     	204	alive    	1	moves	1	natural 	1	n	0	0        	 	0.0	0	77.8859077999951	77.9859012000088	0.0999934000137728
90858	100	155	stimuli/movNat/river/mn_river04.jpg              	1	2	1	mn_river04.jpg       	movNat   	3	river     	29	river04     	293	not_alive	0	moves	1	natural 	1	n	0	0        	 	0.0	0	78.0359364000033	78.1359061000112	0.0999697000079323
91008	100	156	stimuli/movArt/car/ma_car01.jpg                  	1	2	1	ma_car01.jpg         	movArt   	2	car       	5	car01       	50	not_alive	0	moves	1	artefact	0	n	0	0        	 	0.0	0	78.1859143000038	78.2859062000061	0.099991900002351
91158	100	157	stimuli/movNat/waves/mn_waves10.jpg              	1	2	1	mn_waves10.jpg       	movNat   	3	waves     	38	waves10     	389	not_alive	0	moves	1	natural 	1	n	0	0        	 	0.0	0	78.3359198000107	78.4359121999878	0.0999923999770544
91308	100	158	stimuli/plant/grass/plant_grass01.jpg            	1	2	1	plant_grass01.jpg    	plant    	6	grass     	17	grass01     	170	alive    	1	still	0	natural 	1	n	0	0        	 	0.0	0	78.4859244000108	78.5859173999925	0.0999929999816231
91458	100	159	stimuli/animals2/lemur/animal_lemur08.jpg        	1	2	1	animal_lemur08.jpg   	animals2 	1	lemur     	23	lemur08     	237	alive    	1	moves	1	natural 	1	n	0	0        	 	0.0	0	78.6359325000085	78.7359218999918	0.0999893999833148
93341	100	160	stimuli/animals2/pigeon/animal_pigeon10.jpg      	1	3	1	animal_pigeon10.jpg  	animals2 	1	pigeon    	28	pigeon10    	289	alive    	1	moves	1	natural 	1	n	0	0        	 	0.0	0	80.5193187000113	80.6193051000009	0.0999863999895752
93491	100	161	stimuli/animals2/pigeon/animal_pigeon06.jpg      	1	3	1	animal_pigeon06.jpg  	animals2 	1	pigeon    	28	pigeon06    	285	alive    	1	moves	1	natural 	1	n	0	0        	 	0.0	0	80.6693147000042	80.7693366000021	0.100021899997955
93641	100	162	stimuli/plant/cactus/plant_cactus02.jpg          	1	3	1	plant_cactus02.jpg   	plant    	6	cactus    	4	cactus02    	41	alive    	1	still	0	natural 	1	n	0	0        	 	0.0	0	80.819319400005	80.9193106000021	0.0999911999970209
93791	100	163	stimuli/nonmovNat/rock/nmn_rock04.jpg            	1	3	1	nmn_rock04.jpg       	nonmovNat	5	rock      	30	rock04      	303	not_alive	0	still	0	natural 	1	n	0	0        	 	0.0	0	80.9693231999991	81.0693167999852	0.0999935999861918
93941	100	164	stimuli/nonmovArt/lock/nma_lock10.jpg            	1	3	1	nma_lock10.jpg       	nonmovArt	4	lock      	24	lock10      	249	not_alive	0	still	0	artefact	0	n	0	0        	 	0.0	0	81.1193264999893	81.2193184999924	0.0999920000031125
94091	100	165	stimuli/animals2/bee/animal_bee10.jpg            	1	3	1	animal_bee10.jpg     	animals2 	1	bee       	0	bee10       	9	alive    	1	moves	1	natural 	1	n	0	0        	 	0.0	0	81.2693287000002	81.3693392999994	0.100010599999223
94241	100	166	stimuli/nonmovNat/shell/nmn_shell04.jpg          	1	3	1	nmn_shell04.jpg      	nonmovNat	5	shell     	32	shell04     	323	not_alive	0	still	0	natural 	1	n	0	0        	 	0.0	0	81.4193336000026	81.5193566000089	0.100023000006331
94391	100	167	stimuli/nonmovArt/mug/nma_mug03.jpg              	1	3	1	nma_mug03.jpg        	nonmovArt	4	mug       	26	mug03       	262	not_alive	0	still	0	artefact	0	n	0	0        	 	0.0	0	81.5693415999995	81.669326400006	0.0999848000064958
94541	100	168	stimuli/animals2/tiger/animal_tiger07.jpg        	1	3	1	animal_tiger07.jpg   	animals2 	1	tiger     	33	tiger07     	336	alive    	1	moves	1	natural 	1	n	0	0        	 	0.0	0	81.719334399997	81.8193298999977	0.0999955000006594
94691	100	169	stimuli/animals2/tiger/animal_tiger06.jpg        	1	3	1	animal_tiger06.jpg   	animals2 	1	tiger     	33	tiger06     	335	alive    	1	moves	1	natural 	1	n	0	0        	 	0.0	0	81.8693391999986	81.969333999994	0.0999947999953292
94841	100	170	stimuli/animals2/pigeon/animal_pigeon10.jpg      	1	3	1	animal_pigeon10.jpg  	animals2 	1	pigeon    	28	pigeon10    	289	alive    	1	moves	1	natural 	1	n	0	0        	 	0.0	0	82.0193597000034	82.1193483000097	0.099988600006327
94991	100	171	stimuli/nonmovArt/headphones/nma_headphones09.jpg	1	3	1	nma_headphones09.jpg 	nonmovArt	4	headphones	18	headphones09	188	not_alive	0	still	0	artefact	0	n	0	0        	 	0.0	0	82.1693457000074	82.2693553999998	0.10000969999237
95141	100	172	stimuli/nonmovArt/clothespeg/nma_clothespeg07.jpg	1	3	1	nma_clothespeg07.jpg 	nonmovArt	4	clothespeg	8	clothespeg07	86	not_alive	0	still	0	artefact	0	n	0	0        	 	0.0	0	82.319352999999	82.419347099989	0.0999940999899991
95291	100	173	stimuli/movNat/hotspring/mn_hotspring06.jpg      	1	3	1	mn_hotspring06.jpg   	movNat   	3	hotspring 	21	hotspring06 	215	not_alive	0	moves	1	natural 	1	n	0	0        	 	0.0	0	82.4693552000099	82.5693541000073	0.0999988999974448
95441	100	174	stimuli/animals2/lemur/animal_lemur02.jpg        	1	3	1	animal_lemur02.jpg   	animals2 	1	lemur     	23	lemur02     	231	alive    	1	moves	1	natural 	1	n	0	0        	 	0.0	0	82.6193990999891	82.7193539	0.0999548000108916
95591	100	175	stimuli/movNat/river/mn_river10.jpg              	1	3	1	mn_river10.jpg       	movNat   	3	river     	29	river10     	299	not_alive	0	moves	1	natural 	1	n	0	0        	 	0.0	0	82.7693626999972	82.8693718999857	0.100009199988563
95741	100	176	stimuli/plant2/lemontree/plant_lemontree06.jpg   	1	3	1	plant_lemontree06.jpg	plant2   	7	lemontree 	22	lemontree06 	225	alive    	1	still	0	natural 	1	n	0	0        	 	0.0	0	82.9193672999972	83.0193611000141	0.0999938000168186
95891	100	177	stimuli/plant/vine/plant_vine10.jpg              	1	3	1	plant_vine10.jpg     	plant    	6	vine      	36	vine10      	369	alive    	1	still	0	natural 	1	n	0	0        	 	0.0	0	83.0693708999897	83.169364500005	0.0999936000152957
96041	100	178	stimuli/plant/flower/plant_flower04.jpg          	1	3	1	plant_flower04.jpg   	plant    	6	flower    	16	flower04    	163	alive    	1	still	0	natural 	1	n	0	0        	 	0.0	0	83.2193901000137	83.3193713999935	0.0999812999798451
96191	100	179	stimuli/nonmovArt/bench/nma_bench08.jpg          	1	3	1	nma_bench08.jpg      	nonmovArt	4	bench     	1	bench08     	17	not_alive	0	still	0	artefact	0	n	0	0        	 	0.0	0	83.3694074999948	83.4693726999976	0.0999652000027709
96341	100	180	stimuli/animals/dog/animal_dog07.jpg             	1	3	1	animal_dog07.jpg     	animals  	0	dog       	11	dog07       	116	alive    	1	moves	1	natural 	1	n	0	0        	 	0.0	0	83.5193833000085	83.6193785000069	0.099995199998375
96491	100	181	stimuli/plant/flower/plant_flower02.jpg          	1	3	1	plant_flower02.jpg   	plant    	6	flower    	16	flower02    	161	alive    	1	still	0	natural 	1	n	0	0        	 	0.0	0	83.6693877000071	83.7693806999887	0.0999929999816231
96641	100	182	stimuli/nonmovNat/cliff/nmn_cliff02.jpg          	1	3	1	nmn_cliff02.jpg      	nonmovNat	5	cliff     	7	cliff02     	71	not_alive	0	still	0	natural 	1	n	0	0        	 	0.0	0	83.8194079000096	83.919384400011	0.0999765000015032
96791	100	183	stimuli/movArt/train/ma_train03.jpg              	1	3	1	ma_train03.jpg       	movArt   	2	train     	34	train03     	342	not_alive	0	moves	1	artefact	0	n	0	0        	 	0.0	0	83.9694025999925	84.0693893000134	0.0999867000209633
96941	100	184	stimuli/plant2/palmtree/plant_palmtree03.jpg     	1	3	1	plant_palmtree03.jpg 	plant2   	7	palmtree  	27	palmtree03  	272	alive    	1	still	0	natural 	1	n	0	0        	 	0.0	0	84.119413700013	84.2193918999983	0.099978199985344
97091	100	185	stimuli/animals/horse/animal_horse10.jpg         	1	3	1	animal_horse10.jpg   	animals  	0	horse     	20	horse10     	209	alive    	1	moves	1	natural 	1	n	0	0        	 	0.0	0	84.2694025000092	84.3693978000083	0.0999952999991365
97241	100	186	stimuli/movArt/boat/ma_boat10.jpg                	1	3	1	ma_boat10.jpg        	movArt   	2	boat      	2	boat10      	29	not_alive	0	moves	1	artefact	0	n	1	0        	 	0.0	0	84.4194089999946	84.5194001999917	0.0999911999970209
97391	100	187	stimuli/movArt/helicopter/ma_helicopter09.jpg    	1	3	1	ma_helicopter09.jpg  	movArt   	2	helicopter	19	helicopter09	198	not_alive	0	moves	1	artefact	0	n	0	0        	 	0.0	0	84.569413899997	84.6694044999895	0.0999905999924522
97541	100	188	stimuli/nonmovArt/clothespeg/nma_clothespeg05.jpg	1	3	1	nma_clothespeg05.jpg 	nonmovArt	4	clothespeg	8	clothespeg05	84	not_alive	0	still	0	artefact	0	n	0	1        	f	0.30331849999493	1	84.7194273000059	84.8194307000085	0.100003400002606
97691	100	189	stimuli/animals2/bee/animal_bee03.jpg            	1	3	1	animal_bee03.jpg     	animals2 	1	bee       	0	bee03       	2	alive    	1	moves	1	natural 	1	n	0	0        	 	0.0	0	84.8694405000133	84.9694406999916	0.10000019997824
97841	100	190	stimuli/plant2/clover/plant_clover08.jpg         	1	3	1	plant_clover08.jpg   	plant2   	7	clover    	9	clover08    	97	alive    	1	still	0	natural 	1	n	0	0        	 	0.0	0	85.0194419999898	85.1194354000036	0.0999934000137728
97991	100	191	stimuli/nonmovNat/sand/nmn_sand09.jpg            	1	3	1	nmn_sand09.jpg       	nonmovNat	5	sand      	31	sand09      	318	not_alive	0	still	0	natural 	1	n	0	0        	 	0.0	0	85.1694442000007	85.269441499986	0.0999972999852616
98141	100	192	stimuli/movNat/hotspring/mn_hotspring05.jpg      	1	3	1	mn_hotspring05.jpg   	movNat   	3	hotspring 	21	hotspring05 	214	not_alive	0	moves	1	natural 	1	n	0	0        	 	0.0	0	85.3194512999908	85.4194442000007	0.0999929000099655
98291	100	193	stimuli/nonmovNat/crystal/nmn_crystal05.jpg      	1	3	1	nmn_crystal05.jpg    	nonmovNat	5	crystal   	10	crystal05   	104	not_alive	0	still	0	natural 	1	n	0	0        	 	0.0	0	85.4694546000101	85.5694466000132	0.0999920000031125
98441	100	194	stimuli/movArt/train/ma_train05.jpg              	1	3	1	ma_train05.jpg       	movArt   	2	train     	34	train05     	344	not_alive	0	moves	1	artefact	0	n	0	0        	 	0.0	0	85.6194582000025	85.7194466000074	0.0999884000048041
98591	100	195	stimuli/animals/dolphin/animal_dolphin08.jpg     	1	3	1	animal_dolphin08.jpg 	animals  	0	dolphin   	12	dolphin08   	127	alive    	1	moves	1	natural 	1	n	0	0        	 	0.0	0	85.769471800013	85.8694542000012	0.099982399988221
98741	100	196	stimuli/nonmovArt/mug/nma_mug08.jpg              	1	3	1	nma_mug08.jpg        	nonmovArt	4	mug       	26	mug08       	267	not_alive	0	still	0	artefact	0	n	0	0        	 	0.0	0	85.9194541999896	86.0194578999944	0.100003700004891
98891	100	197	stimuli/nonmovArt/mug/nma_mug02.jpg              	1	3	1	nma_mug02.jpg        	nonmovArt	4	mug       	26	mug02       	261	not_alive	0	still	0	artefact	0	n	0	0        	 	0.0	0	86.0694576000096	86.1694492000097	0.0999916000000667
99041	100	198	stimuli/plant2/moss/plant_moss07.jpg             	1	3	1	plant_moss07.jpg     	plant2   	7	moss      	25	moss07      	256	alive    	1	still	0	natural 	1	n	0	0        	 	0.0	0	86.2194627999852	86.3194703999907	0.100007600005483
99191	100	199	stimuli/nonmovArt/clothespeg/nma_clothespeg03.jpg	1	3	1	nma_clothespeg03.jpg 	nonmovArt	4	clothespeg	8	clothespeg03	82	not_alive	0	still	0	artefact	0	n	0	0        	 	0.0	0	86.3694677999883	86.4694591999869	0.0999913999985438
99341	100	200	stimuli/animals2/tiger/animal_tiger06.jpg        	1	3	1	animal_tiger06.jpg   	animals2 	1	tiger     	33	tiger06     	335	alive    	1	moves	1	natural 	1	n	0	0        	 	0.0	0	86.5194689999917	86.6194613999978	0.0999924000061583
99491	100	201	stimuli/nonmovNat/cliff/nmn_cliff08.jpg          	1	3	1	nmn_cliff08.jpg      	nonmovNat	5	cliff     	7	cliff08     	77	not_alive	0	still	0	natural 	1	n	0	0        	 	0.0	0	86.6694725000125	86.7694653999933	0.0999928999808617
99641	100	202	stimuli/movNat/waterfall/mn_waterfall02.jpg      	1	3	1	mn_waterfall02.jpg   	movNat   	3	waterfall 	37	waterfall02 	371	not_alive	0	moves	1	natural 	1	n	0	0        	 	0.0	0	86.8194771000126	86.919470599998	0.0999934999854304
99791	100	203	stimuli/plant2/fern/plant_fern08.jpg             	1	3	1	plant_fern08.jpg     	plant2   	7	fern      	14	fern08      	147	alive    	1	still	0	natural 	1	n	0	0        	 	0.0	0	86.9694810000074	87.0695112000103	0.100030200002948
99941	100	204	stimuli/nonmovArt/headphones/nma_headphones10.jpg	1	3	1	nma_headphones10.jpg 	nonmovArt	4	headphones	18	headphones10	189	not_alive	0	still	0	artefact	0	n	0	0        	 	0.0	0	87.1194867999875	87.2194794999959	0.0999927000084426
100091	100	205	stimuli/animals/eagle/animal_eagle09.jpg         	1	3	1	animal_eagle09.jpg   	animals  	0	eagle     	13	eagle09     	138	alive    	1	moves	1	natural 	1	n	0	0        	 	0.0	0	87.2694880999916	87.3694824000122	0.0999943000206258
100241	100	206	stimuli/plant/cactus/plant_cactus03.jpg          	1	3	1	plant_cactus03.jpg   	plant    	6	cactus    	4	cactus03    	42	alive    	1	still	0	natural 	1	n	0	0        	 	0.0	0	87.4194949000084	87.51948670001	0.0999918000015896
100391	100	207	stimuli/animals/cat/animal_cat02.jpg             	1	3	1	animal_cat02.jpg     	animals  	0	cat       	6	cat02       	61	alive    	1	moves	1	natural 	1	n	0	0        	 	0.0	0	87.5694970999903	87.669544400007	0.10004730001674
100541	100	208	stimuli/movNat/waves/mn_waves08.jpg              	1	3	1	mn_waves08.jpg       	movNat   	3	waves     	38	waves08     	387	not_alive	0	moves	1	natural 	1	n	0	0        	 	0.0	0	87.7195011999866	87.8195100000012	0.100008800014621
100691	100	209	stimuli/nonmovNat/cliff/nmn_cliff09.jpg          	1	3	1	nmn_cliff09.jpg      	nonmovNat	5	cliff     	7	cliff09     	78	not_alive	0	still	0	natural 	1	n	0	0        	 	0.0	0	87.8695054000127	87.9695340000035	0.100028599990765
100841	100	210	stimuli/movArt/boat/ma_boat03.jpg                	1	3	1	ma_boat03.jpg        	movArt   	2	boat      	2	boat03      	22	not_alive	0	moves	1	artefact	0	n	0	0        	 	0.0	0	88.019507399993	88.1195023999899	0.0999949999968521
100991	100	211	stimuli/animals2/whale/animal_whale01.jpg        	1	3	1	animal_whale01.jpg   	animals2 	1	whale     	39	whale01     	390	alive    	1	moves	1	natural 	1	n	0	0        	 	0.0	0	88.1695266999886	88.2695150999934	0.0999884000048041
101141	100	212	stimuli/nonmovArt/lock/nma_lock04.jpg            	1	3	1	nma_lock04.jpg       	nonmovArt	4	lock      	24	lock04      	243	not_alive	0	still	0	artefact	0	n	0	0        	 	0.0	0	88.3195162999909	88.4195251000056	0.100008800014621
101291	100	213	stimuli/plant2/palmtree/plant_palmtree02.jpg     	1	3	1	plant_palmtree02.jpg 	plant2   	7	palmtree  	27	palmtree02  	271	alive    	1	still	0	natural 	1	n	0	0        	 	0.0	0	88.4695206999895	88.5695378000091	0.100017100019613
101441	100	214	stimuli/movNat/waves/mn_waves10.jpg              	1	3	1	mn_waves10.jpg       	movNat   	3	waves     	38	waves10     	389	not_alive	0	moves	1	natural 	1	n	0	0        	 	0.0	0	88.6195253999904	88.7195200000133	0.0999946000229102
101591	100	215	stimuli/movArt/train/ma_train08.jpg              	1	3	1	ma_train08.jpg       	movArt   	2	train     	34	train08     	347	not_alive	0	moves	1	artefact	0	n	0	0        	 	0.0	0	88.7695276000013	88.8695218999928	0.099994299991522
101741	100	216	stimuli/nonmovNat/shell/nmn_shell07.jpg          	1	3	1	nmn_shell07.jpg      	nonmovNat	5	shell     	32	shell07     	326	not_alive	0	still	0	natural 	1	n	0	0        	 	0.0	0	88.9195600000094	89.0195261999907	0.0999661999812815
101891	100	217	stimuli/movNat/fire/mn_fire09.jpg                	1	3	1	mn_fire09.jpg        	movNat   	3	fire      	15	fire09      	158	not_alive	0	moves	1	natural 	1	n	0	0        	 	0.0	0	89.0695350999886	89.1695401000034	0.100005000014789
102041	100	218	stimuli/nonmovArt/lock/nma_lock02.jpg            	1	3	1	nma_lock02.jpg       	nonmovArt	4	lock      	24	lock02      	241	not_alive	0	still	0	artefact	0	n	1	0        	 	0.0	0	89.2195408999978	89.3195340000093	0.0999931000114884
102191	100	219	stimuli/nonmovArt/headphones/nma_headphones10.jpg	1	3	1	nma_headphones10.jpg 	nonmovArt	4	headphones	18	headphones10	189	not_alive	0	still	0	artefact	0	n	0	0        	 	0.0	0	89.369545900001	89.4695387000101	0.0999928000092041
102341	100	220	stimuli/movArt/helicopter/ma_helicopter09.jpg    	1	3	1	ma_helicopter09.jpg  	movArt   	2	helicopter	19	helicopter09	198	not_alive	0	moves	1	artefact	0	n	0	1        	f	0.392041799990693	1	89.5195739000046	89.6195443999896	0.09997049998492
102491	100	221	stimuli/nonmovNat/crystal/nmn_crystal01.jpg      	1	3	1	nmn_crystal01.jpg    	nonmovNat	5	crystal   	10	crystal01   	100	not_alive	0	still	0	natural 	1	n	0	0        	 	0.0	0	89.6695751000079	89.7695459999959	0.0999708999879658
102641	100	222	stimuli/animals2/lemur/animal_lemur10.jpg        	1	3	1	animal_lemur10.jpg   	animals2 	1	lemur     	23	lemur10     	239	alive    	1	moves	1	natural 	1	n	0	0        	 	0.0	0	89.8195573000121	89.9195515000028	0.0999941999907605
102791	100	223	stimuli/plant/vine/plant_vine01.jpg              	1	3	1	plant_vine01.jpg     	plant    	6	vine      	36	vine01      	360	alive    	1	still	0	natural 	1	n	0	0        	 	0.0	0	89.9695612000069	90.0695541999885	0.0999929999816231
102941	100	224	stimuli/nonmovNat/rock/nmn_rock09.jpg            	1	3	1	nmn_rock09.jpg       	nonmovNat	5	rock      	30	rock09      	308	not_alive	0	still	0	natural 	1	n	0	0        	 	0.0	0	90.11956739999	90.2195593999932	0.0999920000031125
103091	100	225	stimuli/animals2/whale/animal_whale04.jpg        	1	3	1	animal_whale04.jpg   	animals2 	1	whale     	39	whale04     	393	alive    	1	moves	1	natural 	1	n	0	0        	 	0.0	0	90.2695816000051	90.3695614000026	0.0999797999975272
103241	100	226	stimuli/animals2/bee/animal_bee06.jpg            	1	3	1	animal_bee06.jpg     	animals2 	1	bee       	0	bee06       	5	alive    	1	moves	1	natural 	1	n	0	0        	 	0.0	0	90.4195832000114	90.519566300005	0.0999830999935512
103391	100	227	stimuli/nonmovNat/sand/nmn_sand04.jpg            	1	3	1	nmn_sand04.jpg       	nonmovNat	5	sand      	31	sand04      	313	not_alive	0	still	0	natural 	1	n	0	0        	 	0.0	0	90.5695795000065	90.6695732999942	0.0999937999877147
103541	100	228	stimuli/plant/tree/plant_tree01.jpg              	1	3	1	plant_tree01.jpg     	plant    	6	tree      	35	tree01      	350	alive    	1	still	0	natural 	1	n	0	0        	 	0.0	0	90.7195778999885	90.8195726000122	0.0999947000236716
103691	100	229	stimuli/plant2/clover/plant_clover02.jpg         	1	3	1	plant_clover02.jpg   	plant2   	7	clover    	9	clover02    	91	alive    	1	still	0	natural 	1	n	1	0        	 	0.0	0	90.8695827999909	90.96957690001	0.0999941000191029
103841	100	230	stimuli/plant2/palmtree/plant_palmtree07.jpg     	1	3	1	plant_palmtree07.jpg 	plant2   	7	palmtree  	27	palmtree07  	276	alive    	1	still	0	natural 	1	n	0	0        	 	0.0	0	91.0195893000054	91.1195804000017	0.0999910999962594
103991	100	231	stimuli/animals/horse/animal_horse05.jpg         	1	3	1	animal_horse05.jpg   	animals  	0	horse     	20	horse05     	204	alive    	1	moves	1	natural 	1	n	0	1        	f	0.302102200017544	1	91.1696017000068	91.2695871999895	0.0999854999827221
104141	100	232	stimuli/plant2/clover/plant_clover10.jpg         	1	3	1	plant_clover10.jpg   	plant2   	7	clover    	9	clover10    	99	alive    	1	still	0	natural 	1	n	0	0        	 	0.0	0	91.3196107000112	91.4196025000128	0.0999918000015896
104291	100	233	stimuli/plant/tree/plant_tree02.jpg              	1	3	1	plant_tree02.jpg     	plant    	6	tree      	35	tree02      	351	alive    	1	still	0	natural 	1	n	0	0        	 	0.0	0	91.4696152000106	91.5696050999977	0.099989899987122
104441	100	234	stimuli/movArt/boat/ma_boat02.jpg                	1	3	1	ma_boat02.jpg        	movArt   	2	boat      	2	boat02      	21	not_alive	0	moves	1	artefact	0	n	0	0        	 	0.0	0	91.6196195000084	91.7196056999964	0.0999861999880522
104591	100	235	stimuli/animals/eagle/animal_eagle06.jpg         	1	3	1	animal_eagle06.jpg   	animals  	0	eagle     	13	eagle06     	135	alive    	1	moves	1	natural 	1	n	0	0        	 	0.0	0	91.7696138999891	91.8696240999852	0.100010199996177
104741	100	236	stimuli/movArt/bus/ma_bus05.jpg                  	1	3	1	ma_bus05.jpg         	movArt   	2	bus       	3	bus05       	34	not_alive	0	moves	1	artefact	0	n	0	0        	 	0.0	0	91.9196191999945	92.0196280000091	0.100008800014621
104891	100	237	stimuli/plant/flower/plant_flower07.jpg          	1	3	1	plant_flower07.jpg   	plant    	6	flower    	16	flower07    	166	alive    	1	still	0	natural 	1	n	0	0        	 	0.0	0	92.0696248000022	92.1696319000039	0.100007100001676
105041	100	238	stimuli/nonmovNat/shell/nmn_shell01.jpg          	1	3	1	nmn_shell01.jpg      	nonmovNat	5	shell     	32	shell01     	320	not_alive	0	still	0	natural 	1	n	0	0        	 	0.0	0	92.2196454000077	92.3196191999887	0.099973799980944
105191	100	239	stimuli/plant2/fern/plant_fern08.jpg             	1	3	1	plant_fern08.jpg     	plant2   	7	fern      	14	fern08      	147	alive    	1	still	0	natural 	1	n	0	0        	 	0.0	0	92.3696470000141	92.4696406000003	0.0999935999861918
112575	100	240	stimuli/movNat/river/mn_river02.jpg              	1	4	1	mn_river02.jpg       	movNat   	3	river     	29	river02     	291	not_alive	0	moves	1	natural 	1	n	0	0        	 	0.0	0	99.7531566999969	99.8531467999856	0.0999900999886449
112725	100	241	stimuli/animals2/lemur/animal_lemur01.jpg        	1	4	1	animal_lemur01.jpg   	animals2 	1	lemur     	23	lemur01     	230	alive    	1	moves	1	natural 	1	n	0	0        	 	0.0	0	99.9031604999909	100.003149900003	0.0999894000124186
112875	100	242	stimuli/animals2/bee/animal_bee01.jpg            	1	4	1	animal_bee01.jpg     	animals2 	1	bee       	0	bee01       	0	alive    	1	moves	1	natural 	1	n	0	0        	 	0.0	0	100.053161599993	100.153154600004	0.099993000010727
113025	100	243	stimuli/animals2/bee/animal_bee07.jpg            	1	4	1	animal_bee07.jpg     	animals2 	1	bee       	0	bee07       	6	alive    	1	moves	1	natural 	1	n	0	0        	 	0.0	0	100.203187900013	100.3031587	0.0999707999872044
113175	100	244	stimuli/nonmovNat/crystal/nmn_crystal01.jpg      	1	4	1	nmn_crystal01.jpg    	nonmovNat	5	crystal   	10	crystal01   	100	not_alive	0	still	0	natural 	1	n	0	0        	 	0.0	0	100.353199200006	100.453163900005	0.0999646999989636
113325	100	245	stimuli/nonmovNat/crystal/nmn_crystal07.jpg      	1	4	1	nmn_crystal07.jpg    	nonmovNat	5	crystal   	10	crystal07   	106	not_alive	0	still	0	natural 	1	n	0	0        	 	0.0	0	100.503172500001	100.603183900006	0.100011400005314
113475	100	246	stimuli/movNat/fire/mn_fire02.jpg                	1	4	1	mn_fire02.jpg        	movNat   	3	fire      	15	fire02      	151	not_alive	0	moves	1	natural 	1	n	0	0        	 	0.0	0	100.653198499989	100.753172099998	0.099973600008525
113625	100	247	stimuli/nonmovNat/shell/nmn_shell08.jpg          	1	4	1	nmn_shell08.jpg      	nonmovNat	5	shell     	32	shell08     	327	not_alive	0	still	0	natural 	1	n	0	0        	 	0.0	0	100.803181800002	100.903173900006	0.0999921000038739
113775	100	248	stimuli/movArt/train/ma_train10.jpg              	1	4	1	ma_train10.jpg       	movArt   	2	train     	34	train10     	349	not_alive	0	moves	1	artefact	0	n	0	0        	 	0.0	0	100.953196999995	101.053179400013	0.0999824000173248
113925	100	249	stimuli/plant/grass/plant_grass10.jpg            	1	4	1	plant_grass10.jpg    	plant    	6	grass     	17	grass10     	179	alive    	1	still	0	natural 	1	n	0	0        	 	0.0	0	101.103204999992	101.203195000009	0.0999900000169873
114075	100	250	stimuli/movArt/bus/ma_bus08.jpg                  	1	4	1	ma_bus08.jpg         	movArt   	2	bus       	3	bus08       	37	not_alive	0	moves	1	artefact	0	n	0	0        	 	0.0	0	101.253195199999	101.353193799994	0.0999985999951605
114225	100	251	stimuli/movNat/river/mn_river09.jpg              	1	4	1	mn_river09.jpg       	movNat   	3	river     	29	river09     	298	not_alive	0	moves	1	natural 	1	n	0	0        	 	0.0	0	101.403198099986	101.503206499998	0.100008400011575
114375	100	252	stimuli/plant/cactus/plant_cactus10.jpg          	1	4	1	plant_cactus10.jpg   	plant    	6	cactus    	4	cactus10    	49	alive    	1	still	0	natural 	1	n	0	0        	 	0.0	0	101.553202100011	101.65319360001	0.0999914999993052
114525	100	253	stimuli/plant2/clover/plant_clover07.jpg         	1	4	1	plant_clover07.jpg   	plant2   	7	clover    	9	clover07    	96	alive    	1	still	0	natural 	1	n	0	0        	 	0.0	0	101.703215999994	101.803197700006	0.0999817000119947
114675	100	254	stimuli/plant2/moss/plant_moss04.jpg             	1	4	1	plant_moss04.jpg     	plant2   	7	moss      	25	moss04      	253	alive    	1	still	0	natural 	1	n	0	0        	 	0.0	0	101.8532098	101.953204999998	0.099995199998375
114825	100	255	stimuli/nonmovNat/rock/nmn_rock04.jpg            	1	4	1	nmn_rock04.jpg       	nonmovNat	5	rock      	30	rock04      	303	not_alive	0	still	0	natural 	1	n	0	0        	 	0.0	0	102.003214900004	102.103201699996	0.0999867999926209
114975	100	256	stimuli/nonmovArt/headphones/nma_headphones06.jpg	1	4	1	nma_headphones06.jpg 	nonmovArt	4	headphones	18	headphones06	185	not_alive	0	still	0	artefact	0	n	0	0        	 	0.0	0	102.153210799996	102.253204100009	0.0999933000130113
115125	100	257	stimuli/nonmovNat/sand/nmn_sand09.jpg            	1	4	1	nmn_sand09.jpg       	nonmovNat	5	sand      	31	sand09      	318	not_alive	0	still	0	natural 	1	n	0	0        	 	0.0	0	102.303215899999	102.403205600014	0.099989700014703
115275	100	258	stimuli/animals/cat/animal_cat07.jpg             	1	4	1	animal_cat07.jpg     	animals  	0	cat       	6	cat07       	66	alive    	1	moves	1	natural 	1	n	0	0        	 	0.0	0	102.453221100004	102.553212300001	0.0999911999970209
115425	100	259	stimuli/plant/tree/plant_tree01.jpg              	1	4	1	plant_tree01.jpg     	plant    	6	tree      	35	tree01      	350	alive    	1	still	0	natural 	1	n	0	0        	 	0.0	0	102.603239299991	102.703217400005	0.0999781000136863
115575	100	260	stimuli/movArt/car/ma_car10.jpg                  	1	4	1	ma_car10.jpg         	movArt   	2	car       	5	car10       	59	not_alive	0	moves	1	artefact	0	n	0	0        	 	0.0	0	102.753230000002	102.853220899997	0.0999908999947365
115725	100	261	stimuli/plant/tree/plant_tree08.jpg              	1	4	1	plant_tree08.jpg     	plant    	6	tree      	35	tree08      	357	alive    	1	still	0	natural 	1	n	0	0        	 	0.0	0	102.903233499994	103.003223200009	0.099989700014703
115875	100	262	stimuli/nonmovArt/clothespeg/nma_clothespeg08.jpg	1	4	1	nma_clothespeg08.jpg 	nonmovArt	4	clothespeg	8	clothespeg08	87	not_alive	0	still	0	artefact	0	n	0	0        	 	0.0	0	103.05323640001	103.153229099989	0.0999926999793388
116025	100	263	stimuli/movArt/train/ma_train03.jpg              	1	4	1	ma_train03.jpg       	movArt   	2	train     	34	train03     	342	not_alive	0	moves	1	artefact	0	n	0	0        	 	0.0	0	103.203238199989	103.303274400008	0.100036200019531
116175	100	264	stimuli/nonmovArt/lock/nma_lock10.jpg            	1	4	1	nma_lock10.jpg       	nonmovArt	4	lock      	24	lock10      	249	not_alive	0	still	0	artefact	0	n	0	0        	 	0.0	0	103.35324289999	103.453234099987	0.0999911999970209
116325	100	265	stimuli/nonmovArt/bench/nma_bench08.jpg          	1	4	1	nma_bench08.jpg      	nonmovArt	4	bench     	1	bench08     	17	not_alive	0	still	0	artefact	0	n	0	0        	 	0.0	0	103.503247599991	103.603242000012	0.0999944000213873
116475	100	266	stimuli/animals/dog/animal_dog03.jpg             	1	4	1	animal_dog03.jpg     	animals  	0	dog       	11	dog03       	112	alive    	1	moves	1	natural 	1	n	0	0        	 	0.0	0	103.653251000011	103.753245400003	0.0999943999922834
116625	100	267	stimuli/animals2/tiger/animal_tiger01.jpg        	1	4	1	animal_tiger01.jpg   	animals2 	1	tiger     	33	tiger01     	330	alive    	1	moves	1	natural 	1	n	1	0        	 	0.0	0	103.803254500002	103.903247000009	0.0999925000069197
116775	100	268	stimuli/plant2/palmtree/plant_palmtree08.jpg     	1	4	1	plant_palmtree08.jpg 	plant2   	7	palmtree  	27	palmtree08  	277	alive    	1	still	0	natural 	1	n	0	0        	 	0.0	0	103.953257199988	104.053278999985	0.100021799997194
116925	100	269	stimuli/animals/dog/animal_dog09.jpg             	1	4	1	animal_dog09.jpg     	animals  	0	dog       	11	dog09       	118	alive    	1	moves	1	natural 	1	n	0	1        	f	0.3919814999972	1	104.103262899996	104.203256899986	0.0999939999892376
117075	100	270	stimuli/plant/flower/plant_flower03.jpg          	1	4	1	plant_flower03.jpg   	plant    	6	flower    	16	flower03    	162	alive    	1	still	0	natural 	1	n	0	0        	 	0.0	0	104.253265300009	104.353258899995	0.0999935999861918
117225	100	271	stimuli/animals/eagle/animal_eagle06.jpg         	1	4	1	animal_eagle06.jpg   	animals  	0	eagle     	13	eagle06     	135	alive    	1	moves	1	natural 	1	n	0	0        	 	0.0	0	104.403271399991	104.503264700004	0.0999933000130113
117375	100	272	stimuli/movArt/train/ma_train01.jpg              	1	4	1	ma_train01.jpg       	movArt   	2	train     	34	train01     	340	not_alive	0	moves	1	artefact	0	n	0	0        	 	0.0	0	104.553275199985	104.653292000003	0.100016800017329
117525	100	273	stimuli/plant/vine/plant_vine03.jpg              	1	4	1	plant_vine03.jpg     	plant    	6	vine      	36	vine03      	362	alive    	1	still	0	natural 	1	n	0	0        	 	0.0	0	104.703278700006	104.803285000002	0.100006299995584
117675	100	274	stimuli/nonmovArt/headphones/nma_headphones01.jpg	1	4	1	nma_headphones01.jpg 	nonmovArt	4	headphones	18	headphones01	180	not_alive	0	still	0	artefact	0	n	0	0        	 	0.0	0	104.853283900011	104.953282100003	0.0999981999921147
117825	100	275	stimuli/movArt/helicopter/ma_helicopter04.jpg    	1	4	1	ma_helicopter04.jpg  	movArt   	2	helicopter	19	helicopter04	193	not_alive	0	moves	1	artefact	0	n	0	0        	 	0.0	0	105.003293999995	105.103287100006	0.0999931000114884
117975	100	276	stimuli/animals/eagle/animal_eagle05.jpg         	1	4	1	animal_eagle05.jpg   	animals  	0	eagle     	13	eagle05     	134	alive    	1	moves	1	natural 	1	n	0	0        	 	0.0	0	105.153312400013	105.253291300003	0.0999788999906741
118125	100	277	stimuli/animals2/pigeon/animal_pigeon06.jpg      	1	4	1	animal_pigeon06.jpg  	animals2 	1	pigeon    	28	pigeon06    	285	alive    	1	moves	1	natural 	1	n	1	0        	 	0.0	0	105.303299899999	105.403293300013	0.0999934000137728
118275	100	278	stimuli/nonmovArt/headphones/nma_headphones08.jpg	1	4	1	nma_headphones08.jpg 	nonmovArt	4	headphones	18	headphones08	187	not_alive	0	still	0	artefact	0	n	0	0        	 	0.0	0	105.453303099988	105.553304600005	0.100001500017243
118425	100	279	stimuli/plant2/fern/plant_fern02.jpg             	1	4	1	plant_fern02.jpg     	plant2   	7	fern      	14	fern02      	141	alive    	1	still	0	natural 	1	n	0	1        	f	0.392006400012178	1	105.60332580001	105.703306699987	0.0999808999767993
118575	100	280	stimuli/animals/cat/animal_cat01.jpg             	1	4	1	animal_cat01.jpg     	animals  	0	cat       	6	cat01       	60	alive    	1	moves	1	natural 	1	n	0	0        	 	0.0	0	105.753329800005	105.853306000005	0.0999761999992188
118725	100	281	stimuli/plant/flower/plant_flower08.jpg          	1	4	1	plant_flower08.jpg   	plant    	6	flower    	16	flower08    	167	alive    	1	still	0	natural 	1	n	0	0        	 	0.0	0	105.903347099986	106.003310500004	0.0999634000181686
118875	100	282	stimuli/nonmovArt/lock/nma_lock02.jpg            	1	4	1	nma_lock02.jpg       	nonmovArt	4	lock      	24	lock02      	241	not_alive	0	still	0	artefact	0	n	0	0        	 	0.0	0	106.053320400009	106.153325799998	0.100005399988731
119025	100	283	stimuli/animals/dolphin/animal_dolphin03.jpg     	1	4	1	animal_dolphin03.jpg 	animals  	0	dolphin   	12	dolphin03   	122	alive    	1	moves	1	natural 	1	n	0	0        	 	0.0	0	106.20332619999	106.303320300009	0.0999941000191029
119175	100	284	stimuli/movNat/waves/mn_waves08.jpg              	1	4	1	mn_waves08.jpg       	movNat   	3	waves     	38	waves08     	387	not_alive	0	moves	1	natural 	1	n	0	0        	 	0.0	0	106.353328500001	106.453321000008	0.0999925000069197
119325	100	285	stimuli/animals/horse/animal_horse03.jpg         	1	4	1	animal_horse03.jpg   	animals  	0	horse     	20	horse03     	202	alive    	1	moves	1	natural 	1	n	0	0        	 	0.0	0	106.503356400004	106.603335599997	0.0999791999929585
119475	100	286	stimuli/movNat/waterfall/mn_waterfall07.jpg      	1	4	1	mn_waterfall07.jpg   	movNat   	3	waterfall 	37	waterfall07 	376	not_alive	0	moves	1	natural 	1	n	1	0        	 	0.0	0	106.6533528	106.753329600004	0.0999768000037875
119625	100	287	stimuli/animals/horse/animal_horse09.jpg         	1	4	1	animal_horse09.jpg   	animals  	0	horse     	20	horse09     	208	alive    	1	moves	1	natural 	1	n	0	0        	 	0.0	0	106.803342900006	106.903334700008	0.0999918000015896
119775	100	288	stimuli/animals2/lemur/animal_lemur07.jpg        	1	4	1	animal_lemur07.jpg   	animals2 	1	lemur     	23	lemur07     	236	alive    	1	moves	1	natural 	1	n	0	1        	f	0.292144000006374	1	106.953344000009	107.053340499988	0.09999649997917
119925	100	289	stimuli/nonmovNat/shell/nmn_shell08.jpg          	1	4	1	nmn_shell08.jpg      	nonmovNat	5	shell     	32	shell08     	327	not_alive	0	still	0	natural 	1	n	0	0        	 	0.0	0	107.103348900011	107.203341299988	0.0999923999770544
120075	100	290	stimuli/animals2/whale/animal_whale02.jpg        	1	4	1	animal_whale02.jpg   	animals2 	1	whale     	39	whale02     	391	alive    	1	moves	1	natural 	1	n	0	0        	 	0.0	0	107.253366699995	107.353348600009	0.0999819000135176
120225	100	291	stimuli/movArt/boat/ma_boat09.jpg                	1	4	1	ma_boat09.jpg        	movArt   	2	boat      	2	boat09      	28	not_alive	0	moves	1	artefact	0	n	0	0        	 	0.0	0	107.403377200011	107.503351199994	0.0999739999824669
120375	100	292	stimuli/animals2/pigeon/animal_pigeon10.jpg      	1	4	1	animal_pigeon10.jpg  	animals2 	1	pigeon    	28	pigeon10    	289	alive    	1	moves	1	natural 	1	n	0	0        	 	0.0	0	107.553361600003	107.653353300004	0.0999917000008281
120525	100	293	stimuli/movNat/hotspring/mn_hotspring06.jpg      	1	4	1	mn_hotspring06.jpg   	movNat   	3	hotspring 	21	hotspring06 	215	not_alive	0	moves	1	natural 	1	n	0	0        	 	0.0	0	107.703363999986	107.80335870001	0.0999947000236716
120675	100	294	stimuli/plant/cactus/plant_cactus06.jpg          	1	4	1	plant_cactus06.jpg   	plant    	6	cactus    	4	cactus06    	45	alive    	1	still	0	natural 	1	n	0	0        	 	0.0	0	107.853373299993	107.95336069999	0.0999873999971896
120825	100	295	stimuli/nonmovArt/lock/nma_lock03.jpg            	1	4	1	nma_lock03.jpg       	nonmovArt	4	lock      	24	lock03      	242	not_alive	0	still	0	artefact	0	n	0	0        	 	0.0	0	108.003373999993	108.10336909999	0.0999950999976136
120975	100	296	stimuli/plant2/lemontree/plant_lemontree10.jpg   	1	4	1	plant_lemontree10.jpg	plant2   	7	lemontree 	22	lemontree10 	229	alive    	1	still	0	natural 	1	n	0	0        	 	0.0	0	108.153377400013	108.253371400002	0.0999939999892376
121125	100	297	stimuli/plant/vine/plant_vine06.jpg              	1	4	1	plant_vine06.jpg     	plant    	6	vine      	36	vine06      	365	alive    	1	still	0	natural 	1	n	0	0        	 	0.0	0	108.303381500009	108.403375599999	0.0999940999899991
121275	100	298	stimuli/nonmovArt/mug/nma_mug03.jpg              	1	4	1	nma_mug03.jpg        	nonmovArt	4	mug       	26	mug03       	262	not_alive	0	still	0	artefact	0	n	0	0        	 	0.0	0	108.453388199996	108.553401699988	0.100013499992201
121425	100	299	stimuli/movArt/car/ma_car04.jpg                  	1	4	1	ma_car04.jpg         	movArt   	2	car       	5	car04       	53	not_alive	0	moves	1	artefact	0	n	0	0        	 	0.0	0	108.603403199988	108.703381900006	0.099978700018255
121575	100	300	stimuli/animals/cat/animal_cat04.jpg             	1	4	1	animal_cat04.jpg     	animals  	0	cat       	6	cat04       	63	alive    	1	moves	1	natural 	1	n	0	0        	 	0.0	0	108.753392599989	108.853402999986	0.1000103999977
121725	100	301	stimuli/nonmovArt/bench/nma_bench06.jpg          	1	4	1	nma_bench06.jpg      	nonmovArt	4	bench     	1	bench06     	15	not_alive	0	still	0	artefact	0	n	0	0        	 	0.0	0	108.903396899987	109.003389599995	0.0999927000084426
121875	100	302	stimuli/movNat/river/mn_river07.jpg              	1	4	1	mn_river07.jpg       	movNat   	3	river     	29	river07     	296	not_alive	0	moves	1	natural 	1	n	0	0        	 	0.0	0	109.053401200013	109.153392899985	0.0999916999717243
122025	100	303	stimuli/movArt/car/ma_car01.jpg                  	1	4	1	ma_car01.jpg         	movArt   	2	car       	5	car01       	50	not_alive	0	moves	1	artefact	0	n	0	0        	 	0.0	0	109.203406899993	109.303398499993	0.0999916000000667
122175	100	304	stimuli/plant2/palmtree/plant_palmtree09.jpg     	1	4	1	plant_palmtree09.jpg 	plant2   	7	palmtree  	27	palmtree09  	278	alive    	1	still	0	natural 	1	n	0	0        	 	0.0	0	109.3534086	109.453400400002	0.0999918000015896
122325	100	305	stimuli/movNat/hotspring/mn_hotspring02.jpg      	1	4	1	mn_hotspring02.jpg   	movNat   	3	hotspring 	21	hotspring02 	211	not_alive	0	moves	1	natural 	1	n	0	0        	 	0.0	0	109.503411699989	109.603422999993	0.100011300004553
122475	100	306	stimuli/plant2/moss/plant_moss09.jpg             	1	4	1	plant_moss09.jpg     	plant2   	7	moss      	25	moss09      	258	alive    	1	still	0	natural 	1	n	0	0        	 	0.0	0	109.653416199988	109.75342220001	0.100006000022404
122625	100	307	stimuli/plant/vine/plant_vine01.jpg              	1	4	1	plant_vine01.jpg     	plant    	6	vine      	36	vine01      	360	alive    	1	still	0	natural 	1	n	0	0        	 	0.0	0	109.803420200013	109.903414600005	0.0999943999922834
122775	100	308	stimuli/nonmovNat/rock/nmn_rock07.jpg            	1	4	1	nmn_rock07.jpg       	nonmovNat	5	rock      	30	rock07      	306	not_alive	0	still	0	natural 	1	n	0	0        	 	0.0	0	109.953427100001	110.05341980001	0.0999927000084426
122925	100	309	stimuli/plant/grass/plant_grass01.jpg            	1	4	1	plant_grass01.jpg    	plant    	6	grass     	17	grass01     	170	alive    	1	still	0	natural 	1	n	0	0        	 	0.0	0	110.103427599999	110.203437899996	0.100010299996939
123075	100	310	stimuli/nonmovArt/mug/nma_mug10.jpg              	1	4	1	nma_mug10.jpg        	nonmovArt	4	mug       	26	mug10       	269	not_alive	0	still	0	artefact	0	n	0	0        	 	0.0	0	110.253431199992	110.353446499998	0.100015300005907
123225	100	311	stimuli/movArt/boat/ma_boat01.jpg                	1	4	1	ma_boat01.jpg        	movArt   	2	boat      	2	boat01      	20	not_alive	0	moves	1	artefact	0	n	0	0        	 	0.0	0	110.403436199995	110.503431299992	0.0999950999976136
123375	100	312	stimuli/nonmovNat/rock/nmn_rock10.jpg            	1	4	1	nmn_rock10.jpg       	nonmovNat	5	rock      	30	rock10      	309	not_alive	0	still	0	natural 	1	n	0	0        	 	0.0	0	110.553439500014	110.653430100007	0.0999905999924522
123525	100	313	stimuli/nonmovArt/bench/nma_bench02.jpg          	1	4	1	nma_bench02.jpg      	nonmovArt	4	bench     	1	bench02     	11	not_alive	0	still	0	artefact	0	n	0	0        	 	0.0	0	110.703459000011	110.803432399989	0.0999733999778982
123675	100	314	stimuli/plant/grass/plant_grass05.jpg            	1	4	1	plant_grass05.jpg    	plant    	6	grass     	17	grass05     	174	alive    	1	still	0	natural 	1	n	0	0        	 	0.0	0	110.853441199986	110.953444199986	0.10000299999956
123825	100	315	stimuli/nonmovNat/crystal/nmn_crystal01.jpg      	1	4	1	nmn_crystal01.jpg    	nonmovNat	5	crystal   	10	crystal01   	100	not_alive	0	still	0	natural 	1	n	0	0        	 	0.0	0	111.003445600014	111.103452100011	0.100006499997107
123975	100	316	stimuli/movNat/waves/mn_waves03.jpg              	1	4	1	mn_waves03.jpg       	movNat   	3	waves     	38	waves03     	382	not_alive	0	moves	1	natural 	1	n	0	0        	 	0.0	0	111.153449800011	111.253442099987	0.099992299976293
124125	100	317	stimuli/plant2/fern/plant_fern03.jpg             	1	4	1	plant_fern03.jpg     	plant2   	7	fern      	14	fern03      	142	alive    	1	still	0	natural 	1	n	0	0        	 	0.0	0	111.303453800007	111.403465100011	0.100011300004553
124275	100	318	stimuli/movNat/waterfall/mn_waterfall05.jpg      	1	4	1	mn_waterfall05.jpg   	movNat   	3	waterfall 	37	waterfall05 	374	not_alive	0	moves	1	natural 	1	n	0	0        	 	0.0	0	111.453498399991	111.553453300003	0.0999549000116531
124425	100	319	stimuli/plant2/lemontree/plant_lemontree05.jpg   	1	4	1	plant_lemontree05.jpg	plant2   	7	lemontree 	22	lemontree05 	224	alive    	1	still	0	natural 	1	n	0	0        	 	0.0	0	111.603481800004	111.703457299998	0.0999754999938887
127192	100	320	stimuli/animals/horse/animal_horse04.jpg         	1	5	1	animal_horse04.jpg   	animals  	0	horse     	20	horse04     	203	alive    	1	moves	1	natural 	1	n	0	0        	 	0.0	0	114.370238500007	114.470202900004	0.0999643999966793
127342	100	321	stimuli/plant2/clover/plant_clover07.jpg         	1	5	1	plant_clover07.jpg   	plant2   	7	clover    	9	clover07    	96	alive    	1	still	0	natural 	1	n	0	0        	 	0.0	0	114.520245199994	114.620205899992	0.0999606999976095
127492	100	322	stimuli/nonmovNat/sand/nmn_sand06.jpg            	1	5	1	nmn_sand06.jpg       	nonmovNat	5	sand      	31	sand06      	315	not_alive	0	still	0	natural 	1	n	0	0        	 	0.0	0	114.670215699996	114.770210899995	0.099995199998375
127642	100	323	stimuli/plant2/palmtree/plant_palmtree09.jpg     	1	5	1	plant_palmtree09.jpg 	plant2   	7	palmtree  	27	palmtree09  	278	alive    	1	still	0	natural 	1	n	0	0        	 	0.0	0	114.820220299996	114.920231099997	0.100010800000746
127792	100	324	stimuli/plant/flower/plant_flower02.jpg          	1	5	1	plant_flower02.jpg   	plant    	6	flower    	16	flower02    	161	alive    	1	still	0	natural 	1	n	0	0        	 	0.0	0	114.970227499987	115.070215899992	0.0999884000048041
127942	100	325	stimuli/movArt/bus/ma_bus04.jpg                  	1	5	1	ma_bus04.jpg         	movArt   	2	bus       	3	bus04       	33	not_alive	0	moves	1	artefact	0	n	0	0        	 	0.0	0	115.120241700002	115.220221299998	0.0999795999960042
128092	100	326	stimuli/movNat/waves/mn_waves02.jpg              	1	5	1	mn_waves02.jpg       	movNat   	3	waves     	38	waves02     	381	not_alive	0	moves	1	natural 	1	n	0	0        	 	0.0	0	115.270257800003	115.370224899991	0.0999670999881346
128242	100	327	stimuli/nonmovArt/clothespeg/nma_clothespeg04.jpg	1	5	1	nma_clothespeg04.jpg 	nonmovArt	4	clothespeg	8	clothespeg04	83	not_alive	0	still	0	artefact	0	n	0	0        	 	0.0	0	115.420237499988	115.520229899994	0.0999924000061583
128392	100	328	stimuli/animals/dolphin/animal_dolphin08.jpg     	1	5	1	animal_dolphin08.jpg 	animals  	0	dolphin   	12	dolphin08   	127	alive    	1	moves	1	natural 	1	n	0	0        	 	0.0	0	115.570241000009	115.670239400002	0.0999983999936376
128542	100	329	stimuli/movArt/helicopter/ma_helicopter07.jpg    	1	5	1	ma_helicopter07.jpg  	movArt   	2	helicopter	19	helicopter07	196	not_alive	0	moves	1	artefact	0	n	0	0        	 	0.0	0	115.720253200008	115.820230799989	0.0999775999807753
128692	100	330	stimuli/nonmovNat/cliff/nmn_cliff04.jpg          	1	5	1	nmn_cliff04.jpg      	nonmovNat	5	cliff     	7	cliff04     	73	not_alive	0	still	0	natural 	1	n	0	0        	 	0.0	0	115.870259599993	115.970237100002	0.0999775000091176
128842	100	331	stimuli/plant/tree/plant_tree04.jpg              	1	5	1	plant_tree04.jpg     	plant    	6	tree      	35	tree04      	353	alive    	1	still	0	natural 	1	n	0	0        	 	0.0	0	116.020252399991	116.120237800002	0.0999854000110645
128992	100	332	stimuli/nonmovArt/mug/nma_mug03.jpg              	1	5	1	nma_mug03.jpg        	nonmovArt	4	mug       	26	mug03       	262	not_alive	0	still	0	artefact	0	n	0	0        	 	0.0	0	116.170248699986	116.270266999985	0.100018299999647
129142	100	333	stimuli/nonmovNat/cliff/nmn_cliff01.jpg          	1	5	1	nmn_cliff01.jpg      	nonmovNat	5	cliff     	7	cliff01     	70	not_alive	0	still	0	natural 	1	n	0	0        	 	0.0	0	116.320255700004	116.420246900001	0.0999911999970209
129292	100	334	stimuli/plant/cactus/plant_cactus04.jpg          	1	5	1	plant_cactus04.jpg   	plant    	6	cactus    	4	cactus04    	43	alive    	1	still	0	natural 	1	n	0	0        	 	0.0	0	116.4702559	116.570252900012	0.0999970000120811
129442	100	335	stimuli/animals/dog/animal_dog04.jpg             	1	5	1	animal_dog04.jpg     	animals  	0	dog       	11	dog04       	113	alive    	1	moves	1	natural 	1	n	0	0        	 	0.0	0	116.620264800004	116.720256800007	0.0999920000031125
129592	100	336	stimuli/animals2/tiger/animal_tiger02.jpg        	1	5	1	animal_tiger02.jpg   	animals2 	1	tiger     	33	tiger02     	331	alive    	1	moves	1	natural 	1	n	0	0        	 	0.0	0	116.770265600004	116.870263399993	0.0999977999890689
129742	100	337	stimuli/movNat/hotspring/mn_hotspring08.jpg      	1	5	1	mn_hotspring08.jpg   	movNat   	3	hotspring 	21	hotspring08 	217	not_alive	0	moves	1	natural 	1	n	0	0        	 	0.0	0	116.920269099995	117.0202651	0.0999960000044666
129892	100	338	stimuli/movNat/waterfall/mn_waterfall10.jpg      	1	5	1	mn_waterfall10.jpg   	movNat   	3	waterfall 	37	waterfall10 	379	not_alive	0	moves	1	natural 	1	n	0	0        	 	0.0	0	117.070285099995	117.170266700006	0.0999816000112332
130042	100	339	stimuli/animals2/pigeon/animal_pigeon07.jpg      	1	5	1	animal_pigeon07.jpg  	animals2 	1	pigeon    	28	pigeon07    	286	alive    	1	moves	1	natural 	1	n	0	0        	 	0.0	0	117.220277299988	117.320272000012	0.0999947000236716
130192	100	340	stimuli/nonmovNat/shell/nmn_shell02.jpg          	1	5	1	nmn_shell02.jpg      	nonmovNat	5	shell     	32	shell02     	321	not_alive	0	still	0	natural 	1	n	0	0        	 	0.0	0	117.370280500007	117.470273399987	0.0999928999808617
130342	100	341	stimuli/plant2/fern/plant_fern09.jpg             	1	5	1	plant_fern09.jpg     	plant2   	7	fern      	14	fern09      	148	alive    	1	still	0	natural 	1	n	0	0        	 	0.0	0	117.520286999992	117.620278599992	0.0999916000000667
130492	100	342	stimuli/animals/eagle/animal_eagle09.jpg         	1	5	1	animal_eagle09.jpg   	animals  	0	eagle     	13	eagle09     	138	alive    	1	moves	1	natural 	1	n	0	0        	 	0.0	0	117.670304200001	117.770289800013	0.0999856000125874
130642	100	343	stimuli/movNat/fire/mn_fire05.jpg                	1	5	1	mn_fire05.jpg        	movNat   	3	fire      	15	fire05      	154	not_alive	0	moves	1	natural 	1	n	0	1        	f	0.0	0	117.820302800013	117.920294599986	0.0999917999724858
130792	100	344	stimuli/plant2/clover/plant_clover03.jpg         	1	5	1	plant_clover03.jpg   	plant2   	7	clover    	9	clover03    	92	alive    	1	still	0	natural 	1	n	0	0        	 	0.0	0	117.970303999988	118.070298300008	0.0999943000206258
130942	100	345	stimuli/nonmovNat/sand/nmn_sand05.jpg            	1	5	1	nmn_sand05.jpg       	nonmovNat	5	sand      	31	sand05      	314	not_alive	0	still	0	natural 	1	n	0	0        	 	0.0	0	118.120306800003	118.220337700011	0.100030900008278
131092	100	346	stimuli/animals2/whale/animal_whale01.jpg        	1	5	1	animal_whale01.jpg   	animals2 	1	whale     	39	whale01     	390	alive    	1	moves	1	natural 	1	n	0	0        	 	0.0	0	118.270310599997	118.370304599986	0.0999939999892376
131242	100	347	stimuli/movArt/helicopter/ma_helicopter03.jpg    	1	5	1	ma_helicopter03.jpg  	movArt   	2	helicopter	19	helicopter03	192	not_alive	0	moves	1	artefact	0	n	0	0        	 	0.0	0	118.420310599991	118.520322199998	0.100011600006837
131392	100	348	stimuli/animals2/lemur/animal_lemur01.jpg        	1	5	1	animal_lemur01.jpg   	animals2 	1	lemur     	23	lemur01     	230	alive    	1	moves	1	natural 	1	n	0	0        	 	0.0	0	118.570321000007	118.670308500004	0.0999874999979511
131542	100	349	stimuli/animals2/bee/animal_bee10.jpg            	1	5	1	animal_bee10.jpg     	animals2 	1	bee       	0	bee10       	9	alive    	1	moves	1	natural 	1	n	0	0        	 	0.0	0	118.720316299994	118.820328900008	0.100012600014452
131692	100	350	stimuli/movArt/boat/ma_boat07.jpg                	1	5	1	ma_boat07.jpg        	movArt   	2	boat      	2	boat07      	26	not_alive	0	moves	1	artefact	0	n	0	0        	 	0.0	0	118.870321800001	118.970338299987	0.100016499985941
131842	100	351	stimuli/animals/dolphin/animal_dolphin01.jpg     	1	5	1	animal_dolphin01.jpg 	animals  	0	dolphin   	12	dolphin01   	120	alive    	1	moves	1	natural 	1	n	0	0        	 	0.0	0	119.020325199992	119.120319799986	0.0999945999938063
131992	100	352	stimuli/animals2/whale/animal_whale02.jpg        	1	5	1	animal_whale02.jpg   	animals2 	1	whale     	39	whale02     	391	alive    	1	moves	1	natural 	1	n	0	0        	 	0.0	0	119.170329099987	119.270342100004	0.100013000017498
132142	100	353	stimuli/movNat/fire/mn_fire07.jpg                	1	5	1	mn_fire07.jpg        	movNat   	3	fire      	15	fire07      	156	not_alive	0	moves	1	natural 	1	n	0	0        	 	0.0	0	119.320338099991	119.42032840001	0.0999903000192717
132292	100	354	stimuli/plant2/lemontree/plant_lemontree10.jpg   	1	5	1	plant_lemontree10.jpg	plant2   	7	lemontree 	22	lemontree10 	229	alive    	1	still	0	natural 	1	n	0	0        	 	0.0	0	119.470336800005	119.570340200007	0.100003400002606
132442	100	355	stimuli/movArt/bus/ma_bus08.jpg                  	1	5	1	ma_bus08.jpg         	movArt   	2	bus       	3	bus08       	37	not_alive	0	moves	1	artefact	0	n	0	0        	 	0.0	0	119.620343899995	119.720350899996	0.100007000000915
132592	100	356	stimuli/nonmovArt/clothespeg/nma_clothespeg02.jpg	1	5	1	nma_clothespeg02.jpg 	nonmovArt	4	clothespeg	8	clothespeg02	81	not_alive	0	still	0	artefact	0	n	0	0        	 	0.0	0	119.770346800011	119.870340099995	0.0999932999839075
132742	100	357	stimuli/animals2/tiger/animal_tiger10.jpg        	1	5	1	animal_tiger10.jpg   	animals2 	1	tiger     	33	tiger10     	339	alive    	1	moves	1	natural 	1	n	0	0        	 	0.0	0	119.920347600011	120.020343499986	0.0999958999746013
132892	100	358	stimuli/plant2/moss/plant_moss05.jpg             	1	5	1	plant_moss05.jpg     	plant2   	7	moss      	25	moss05      	254	alive    	1	still	0	natural 	1	n	0	0        	 	0.0	0	120.070389800007	120.170347600011	0.0999578000046313
133042	100	359	stimuli/nonmovNat/cliff/nmn_cliff01.jpg          	1	5	1	nmn_cliff01.jpg      	nonmovNat	5	cliff     	7	cliff01     	70	not_alive	0	still	0	natural 	1	n	0	0        	 	0.0	0	120.220373999997	120.320361099992	0.0999870999949053
133192	100	360	stimuli/plant/grass/plant_grass05.jpg            	1	5	1	plant_grass05.jpg    	plant    	6	grass     	17	grass05     	174	alive    	1	still	0	natural 	1	n	0	0        	 	0.0	0	120.370359799999	120.470353899989	0.0999940999899991
133342	100	361	stimuli/movNat/fire/mn_fire03.jpg                	1	5	1	mn_fire03.jpg        	movNat   	3	fire      	15	fire03      	152	not_alive	0	moves	1	natural 	1	n	0	0        	 	0.0	0	120.520366699988	120.620360200002	0.0999935000145342
133492	100	362	stimuli/plant2/fern/plant_fern07.jpg             	1	5	1	plant_fern07.jpg     	plant2   	7	fern      	14	fern07      	146	alive    	1	still	0	natural 	1	n	0	0        	 	0.0	0	120.670410899998	120.770383299998	0.0999723999993876
133642	100	363	stimuli/nonmovNat/cliff/nmn_cliff06.jpg          	1	5	1	nmn_cliff06.jpg      	nonmovNat	5	cliff     	7	cliff06     	75	not_alive	0	still	0	natural 	1	n	0	0        	 	0.0	0	120.820384499995	120.920366700011	0.0999822000158019
133792	100	364	stimuli/movArt/train/ma_train10.jpg              	1	5	1	ma_train10.jpg       	movArt   	2	train     	34	train10     	349	not_alive	0	moves	1	artefact	0	n	0	0        	 	0.0	0	120.97037689999	121.070368799992	0.099991900002351
133942	100	365	stimuli/plant2/fern/plant_fern02.jpg             	1	5	1	plant_fern02.jpg     	plant2   	7	fern      	14	fern02      	141	alive    	1	still	0	natural 	1	n	0	0        	 	0.0	0	121.120383000001	121.220374700002	0.0999917000008281
134092	100	366	stimuli/nonmovNat/crystal/nmn_crystal05.jpg      	1	5	1	nmn_crystal05.jpg    	nonmovNat	5	crystal   	10	crystal05   	104	not_alive	0	still	0	natural 	1	n	0	0        	 	0.0	0	121.270384400006	121.370395000005	0.100010599999223
134242	100	367	stimuli/movArt/boat/ma_boat01.jpg                	1	5	1	ma_boat01.jpg        	movArt   	2	boat      	2	boat01      	20	not_alive	0	moves	1	artefact	0	n	0	0        	 	0.0	0	121.420408500009	121.520383099996	0.0999745999870356
134392	100	368	stimuli/nonmovArt/bench/nma_bench01.jpg          	1	5	1	nma_bench01.jpg      	nonmovArt	4	bench     	1	bench01     	10	not_alive	0	still	0	artefact	0	n	0	0        	 	0.0	0	121.570419199998	121.670387199993	0.0999679999949876
134542	100	369	stimuli/animals2/pigeon/animal_pigeon08.jpg      	1	5	1	animal_pigeon08.jpg  	animals2 	1	pigeon    	28	pigeon08    	287	alive    	1	moves	1	natural 	1	n	0	0        	 	0.0	0	121.720397099998	121.820391099987	0.0999939999892376
134692	100	370	stimuli/movArt/helicopter/ma_helicopter02.jpg    	1	5	1	ma_helicopter02.jpg  	movArt   	2	helicopter	19	helicopter02	191	not_alive	0	moves	1	artefact	0	n	1	0        	 	0.0	0	121.870419000013	121.970395899989	0.0999768999754451
134842	100	371	stimuli/animals/cat/animal_cat09.jpg             	1	5	1	animal_cat09.jpg     	animals  	0	cat       	6	cat09       	68	alive    	1	moves	1	natural 	1	n	0	0        	 	0.0	0	122.020406700001	122.120400999993	0.099994299991522
134992	100	372	stimuli/nonmovArt/clothespeg/nma_clothespeg08.jpg	1	5	1	nma_clothespeg08.jpg 	nonmovArt	4	clothespeg	8	clothespeg08	87	not_alive	0	still	0	artefact	0	n	1	1        	f	0.007288900000276	1	122.170412600011	122.270424899994	0.100012299983064
135142	100	373	stimuli/nonmovNat/cliff/nmn_cliff08.jpg          	1	5	1	nmn_cliff08.jpg      	nonmovNat	5	cliff     	7	cliff08     	77	not_alive	0	still	0	natural 	1	n	0	0        	 	0.0	0	122.320421699987	122.420405899989	0.0999842000019271
135292	100	374	stimuli/plant2/palmtree/plant_palmtree04.jpg     	1	5	1	plant_palmtree04.jpg 	plant2   	7	palmtree  	27	palmtree04  	273	alive    	1	still	0	natural 	1	n	0	0        	 	0.0	0	122.470423499995	122.570411799999	0.0999883000040427
135442	100	375	stimuli/plant/grass/plant_grass07.jpg            	1	5	1	plant_grass07.jpg    	plant    	6	grass     	17	grass07     	176	alive    	1	still	0	natural 	1	n	0	0        	 	0.0	0	122.620422999986	122.720415699994	0.0999927000084426
135592	100	376	stimuli/plant/cactus/plant_cactus10.jpg          	1	5	1	plant_cactus10.jpg   	plant    	6	cactus    	4	cactus10    	49	alive    	1	still	0	natural 	1	n	0	0        	 	0.0	0	122.770426000003	122.87041979999	0.0999937999877147
135742	100	377	stimuli/plant2/lemontree/plant_lemontree02.jpg   	1	5	1	plant_lemontree02.jpg	plant2   	7	lemontree 	22	lemontree02 	221	alive    	1	still	0	natural 	1	n	0	1        	f	0.742247899994254	1	122.920428299985	123.020425199997	0.0999969000113197
135892	100	378	stimuli/plant/flower/plant_flower09.jpg          	1	5	1	plant_flower09.jpg   	plant    	6	flower    	16	flower09    	168	alive    	1	still	0	natural 	1	n	0	0        	 	0.0	0	123.070446900005	123.170427600009	0.0999807000043802
136042	100	379	stimuli/plant/grass/plant_grass06.jpg            	1	5	1	plant_grass06.jpg    	plant    	6	grass     	17	grass06     	175	alive    	1	still	0	natural 	1	n	0	0        	 	0.0	0	123.220436400006	123.320429999992	0.0999935999861918
136192	100	380	stimuli/plant/vine/plant_vine07.jpg              	1	5	1	plant_vine07.jpg     	plant    	6	vine      	36	vine07      	366	alive    	1	still	0	natural 	1	n	0	0        	 	0.0	0	123.370457300014	123.47043419999	0.0999768999754451
136342	100	381	stimuli/plant2/moss/plant_moss08.jpg             	1	5	1	plant_moss08.jpg     	plant2   	7	moss      	25	moss08      	257	alive    	1	still	0	natural 	1	n	0	0        	 	0.0	0	123.520443499991	123.620439099992	0.0999956000014208
136492	100	382	stimuli/movNat/river/mn_river10.jpg              	1	5	1	mn_river10.jpg       	movNat   	3	river     	29	river10     	299	not_alive	0	moves	1	natural 	1	n	0	0        	 	0.0	0	123.670447799988	123.770484100009	0.100036300020292
136642	100	383	stimuli/animals/dog/animal_dog06.jpg             	1	5	1	animal_dog06.jpg     	animals  	0	dog       	11	dog06       	115	alive    	1	moves	1	natural 	1	n	0	0        	 	0.0	0	123.820454300003	123.920446200005	0.099991900002351
136792	100	384	stimuli/animals/dolphin/animal_dolphin02.jpg     	1	5	1	animal_dolphin02.jpg 	animals  	0	dolphin   	12	dolphin02   	121	alive    	1	moves	1	natural 	1	n	0	0        	 	0.0	0	123.970459600008	124.070449099992	0.0999894999840762
136942	100	385	stimuli/movArt/bus/ma_bus09.jpg                  	1	5	1	ma_bus09.jpg         	movArt   	2	bus       	3	bus09       	38	not_alive	0	moves	1	artefact	0	n	0	0        	 	0.0	0	124.120479500008	124.220473900001	0.0999943999922834
137092	100	386	stimuli/movNat/river/mn_river05.jpg              	1	5	1	mn_river05.jpg       	movNat   	3	river     	29	river05     	294	not_alive	0	moves	1	natural 	1	n	0	0        	 	0.0	0	124.270465000009	124.37045789999	0.0999928999808617
137242	100	387	stimuli/animals/dog/animal_dog08.jpg             	1	5	1	animal_dog08.jpg     	animals  	0	dog       	11	dog08       	117	alive    	1	moves	1	natural 	1	n	0	0        	 	0.0	0	124.420469500008	124.520490700001	0.100021199992625
137392	100	388	stimuli/plant2/lemontree/plant_lemontree09.jpg   	1	5	1	plant_lemontree09.jpg	plant2   	7	lemontree 	22	lemontree09 	228	alive    	1	still	0	natural 	1	n	0	0        	 	0.0	0	124.57047430001	124.670466400014	0.0999921000038739
137542	100	389	stimuli/nonmovNat/crystal/nmn_crystal08.jpg      	1	5	1	nmn_crystal08.jpg    	nonmovNat	5	crystal   	10	crystal08   	107	not_alive	0	still	0	natural 	1	n	0	0        	 	0.0	0	124.720494000008	124.820491599996	0.099997599987546
137692	100	390	stimuli/movArt/car/ma_car09.jpg                  	1	5	1	ma_car09.jpg         	movArt   	2	car       	5	car09       	58	not_alive	0	moves	1	artefact	0	n	0	0        	 	0.0	0	124.870481699996	124.970473599999	0.099991900002351
137842	100	391	stimuli/nonmovNat/rock/nmn_rock08.jpg            	1	5	1	nmn_rock08.jpg       	nonmovNat	5	rock      	30	rock08      	307	not_alive	0	still	0	natural 	1	n	0	0        	 	0.0	0	125.020484600012	125.120494600007	0.100009999994654
137992	100	392	stimuli/nonmovNat/sand/nmn_sand08.jpg            	1	5	1	nmn_sand08.jpg       	nonmovNat	5	sand      	31	sand08      	317	not_alive	0	still	0	natural 	1	n	0	0        	 	0.0	0	125.170489300013	125.270496200013	0.100006900000153
138142	100	393	stimuli/nonmovArt/clothespeg/nma_clothespeg06.jpg	1	5	1	nma_clothespeg06.jpg 	nonmovArt	4	clothespeg	8	clothespeg06	85	not_alive	0	still	0	artefact	0	n	0	0        	 	0.0	0	125.320508400007	125.420485599985	0.0999771999777295
138292	100	394	stimuli/nonmovNat/rock/nmn_rock08.jpg            	1	5	1	nmn_rock08.jpg       	nonmovNat	5	rock      	30	rock08      	307	not_alive	0	still	0	natural 	1	n	0	0        	 	0.0	0	125.470497300004	125.57049079999	0.0999934999854304
138442	100	395	stimuli/animals2/whale/animal_whale07.jpg        	1	5	1	animal_whale07.jpg   	animals2 	1	whale     	39	whale07     	396	alive    	1	moves	1	natural 	1	n	0	0        	 	0.0	0	125.620544100006	125.720498500013	0.0999544000078458
138592	100	396	stimuli/nonmovArt/mug/nma_mug04.jpg              	1	5	1	nma_mug04.jpg        	nonmovArt	4	mug       	26	mug04       	263	not_alive	0	still	0	artefact	0	n	0	0        	 	0.0	0	125.770504799992	125.870512599999	0.100007800007006
138742	100	397	stimuli/movNat/hotspring/mn_hotspring08.jpg      	1	5	1	mn_hotspring08.jpg   	movNat   	3	hotspring 	21	hotspring08 	217	not_alive	0	moves	1	natural 	1	n	0	0        	 	0.0	0	125.920509899996	126.020503700012	0.0999938000168186
138892	100	398	stimuli/movArt/train/ma_train07.jpg              	1	5	1	ma_train07.jpg       	movArt   	2	train     	34	train07     	346	not_alive	0	moves	1	artefact	0	n	0	0        	 	0.0	0	126.070512900013	126.170504700014	0.0999918000015896
139042	100	399	stimuli/animals/eagle/animal_eagle04.jpg         	1	5	1	animal_eagle04.jpg   	animals  	0	eagle     	13	eagle04     	133	alive    	1	moves	1	natural 	1	n	0	0        	 	0.0	0	126.220517000009	126.3205113	0.099994299991522
159909	100	400	stimuli/plant/flower/plant_flower04.jpg          	1	6	1	plant_flower04.jpg   	plant    	6	flower    	16	flower04    	163	alive    	1	still	0	natural 	1	n	0	0        	 	0.0	0	147.087743899989	147.187736499996	0.0999926000076812
160059	100	401	stimuli/nonmovNat/shell/nmn_shell04.jpg          	1	6	1	nmn_shell04.jpg      	nonmovNat	5	shell     	32	shell04     	323	not_alive	0	still	0	natural 	1	n	0	0        	 	0.0	0	147.237749099993	147.337752199994	0.100003100000322
160209	100	402	stimuli/plant2/moss/plant_moss03.jpg             	1	6	1	plant_moss03.jpg     	plant2   	7	moss      	25	moss03      	252	alive    	1	still	0	natural 	1	n	0	0        	 	0.0	0	147.387752999988	147.487743800011	0.0999908000230789
160359	100	403	stimuli/animals/dolphin/animal_dolphin07.jpg     	1	6	1	animal_dolphin07.jpg 	animals  	0	dolphin   	12	dolphin07   	126	alive    	1	moves	1	natural 	1	n	0	0        	 	0.0	0	147.537770800001	147.637753599993	0.0999827999912668
160509	100	404	stimuli/movNat/waves/mn_waves06.jpg              	1	6	1	mn_waves06.jpg       	movNat   	3	waves     	38	waves06     	385	not_alive	0	moves	1	natural 	1	n	0	0        	 	0.0	0	147.687761000008	147.787771000003	0.100009999994654
160659	100	405	stimuli/nonmovArt/clothespeg/nma_clothespeg04.jpg	1	6	1	nma_clothespeg04.jpg 	nonmovArt	4	clothespeg	8	clothespeg04	83	not_alive	0	still	0	artefact	0	n	0	0        	 	0.0	0	147.837762799987	147.937752900005	0.0999901000177488
160809	100	406	stimuli/movNat/river/mn_river08.jpg              	1	6	1	mn_river08.jpg       	movNat   	3	river     	29	river08     	297	not_alive	0	moves	1	natural 	1	n	0	0        	 	0.0	0	147.987759899988	148.087754200009	0.0999943000206258
160959	100	407	stimuli/nonmovNat/sand/nmn_sand02.jpg            	1	6	1	nmn_sand02.jpg       	nonmovNat	5	sand      	31	sand02      	311	not_alive	0	still	0	natural 	1	n	0	0        	 	0.0	0	148.137768099987	148.237757700001	0.0999896000139415
161109	100	408	stimuli/nonmovArt/lock/nma_lock03.jpg            	1	6	1	nma_lock03.jpg       	nonmovArt	4	lock      	24	lock03      	242	not_alive	0	still	0	artefact	0	n	0	0        	 	0.0	0	148.287770800001	148.387761699996	0.0999908999947365
161259	100	409	stimuli/nonmovNat/shell/nmn_shell10.jpg          	1	6	1	nmn_shell10.jpg      	nonmovNat	5	shell     	32	shell10     	329	not_alive	0	still	0	natural 	1	n	0	0        	 	0.0	0	148.437773399986	148.537795000011	0.100021600024775
161409	100	410	stimuli/nonmovArt/lock/nma_lock09.jpg            	1	6	1	nma_lock09.jpg       	nonmovArt	4	lock      	24	lock09      	248	not_alive	0	still	0	artefact	0	n	0	0        	 	0.0	0	148.587792800012	148.687769899989	0.099977099976968
161559	100	411	stimuli/movArt/car/ma_car10.jpg                  	1	6	1	ma_car10.jpg         	movArt   	2	car       	5	car10       	59	not_alive	0	moves	1	artefact	0	n	0	0        	 	0.0	0	148.737781300006	148.837774099986	0.0999927999801002
161709	100	412	stimuli/movNat/hotspring/mn_hotspring10.jpg      	1	6	1	mn_hotspring10.jpg   	movNat   	3	hotspring 	21	hotspring10 	219	not_alive	0	moves	1	natural 	1	n	0	0        	 	0.0	0	148.887824900012	148.987806599995	0.0999816999828909
161859	100	413	stimuli/animals2/pigeon/animal_pigeon09.jpg      	1	6	1	animal_pigeon09.jpg  	animals2 	1	pigeon    	28	pigeon09    	288	alive    	1	moves	1	natural 	1	n	0	0        	 	0.0	0	149.037822000013	149.1378004	0.0999783999868669
