onset	duration	eventnumber	stimulus_file	blockno	trialno	is_faststream	stim	stim_category	category_number	exemplar	exemplar_number	image_name	image_number	aliveness	aliveness_bin	movement	movement_bin	naturalness	naturalness_bin	response_hand_alive	istarget	response	keypressed	rt	correct	time_stimon	time_stimoff	stimdur
78901	100	0	stimuli/nonmovArt/bench/nma_bench05.jpg          	1	1	1	nma_bench05.jpg      	nonmovArt	4	bench     	1	bench05     	14	not_alive	0	still	0	artefact	0	n	0	0        	 	0.0	0	58.7026828001253	58.802655500127	0.0999727000016719
79052	100	1	stimuli/animals/dolphin/animal_dolphin10.jpg     	1	1	1	animal_dolphin10.jpg 	animals  	0	dolphin   	12	dolphin10   	129	alive    	1	moves	1	natural 	1	n	0	1        	a	0.0	0	58.8527038001921	58.9526639000978	0.0999600999057293
79201	100	2	stimuli/nonmovArt/lock/nma_lock08.jpg            	1	1	1	nma_lock08.jpg       	nonmovArt	4	lock      	24	lock08      	247	not_alive	0	still	0	artefact	0	n	0	0        	 	0.0	0	59.0026724000927	59.1026664001402	0.0999940000474453
79351	100	3	stimuli/movNat/river/mn_river04.jpg              	1	1	1	mn_river04.jpg       	movNat   	3	river     	29	river04     	293	not_alive	0	moves	1	natural 	1	n	0	0        	 	0.0	0	59.1526769001503	59.2526685001794	0.0999916000291705
79501	100	4	stimuli/animals2/whale/animal_whale05.jpg        	1	1	1	animal_whale05.jpg   	animals2 	1	whale     	39	whale05     	394	alive    	1	moves	1	natural 	1	n	0	0        	 	0.0	0	59.3026774001774	59.4026711999904	0.0999937998130918
79651	100	5	stimuli/movArt/helicopter/ma_helicopter03.jpg    	1	1	1	ma_helicopter03.jpg  	movArt   	2	helicopter	19	helicopter03	192	not_alive	0	moves	1	artefact	0	n	0	0        	 	0.0	0	59.4526825000066	59.5526738001499	0.0999913001433015
79801	100	6	stimuli/movNat/waterfall/mn_waterfall02.jpg      	1	1	1	mn_waterfall02.jpg   	movNat   	3	waterfall 	37	waterfall02 	371	not_alive	0	moves	1	natural 	1	n	0	0        	 	0.0	0	59.6026870000642	59.702679600101	0.099992600036785
79952	100	7	stimuli/movNat/fire/mn_fire07.jpg                	1	1	1	mn_fire07.jpg        	movNat   	3	fire      	15	fire07      	156	not_alive	0	moves	1	natural 	1	n	0	0        	 	0.0	0	59.7529524001293	59.852685000049	0.0997325999196619
80101	100	8	stimuli/animals/eagle/animal_eagle06.jpg         	1	1	1	animal_eagle06.jpg   	animals  	0	eagle     	13	eagle06     	135	alive    	1	moves	1	natural 	1	n	0	0        	 	0.0	0	59.9026935000438	60.0026874002069	0.0999939001630992
80251	100	9	stimuli/nonmovArt/clothespeg/nma_clothespeg02.jpg	1	1	1	nma_clothespeg02.jpg 	nonmovArt	4	clothespeg	8	clothespeg02	81	not_alive	0	still	0	artefact	0	n	0	0        	 	0.0	0	60.0527000001166	60.1527021001093	0.100002099992707
80401	100	10	stimuli/movArt/bus/ma_bus05.jpg                  	1	1	1	ma_bus05.jpg         	movArt   	2	bus       	3	bus05       	34	not_alive	0	moves	1	artefact	0	n	0	0        	 	0.0	0	60.2026996000204	60.3026974000968	0.0999978000763804
80552	100	11	stimuli/plant/grass/plant_grass03.jpg            	1	1	1	plant_grass03.jpg    	plant    	6	grass     	17	grass03     	172	alive    	1	still	0	natural 	1	n	0	0        	 	0.0	0	60.3527054002043	60.45269870013	0.0999932999256998
80702	100	12	stimuli/movNat/river/mn_river07.jpg              	1	1	1	mn_river07.jpg       	movNat   	3	river     	29	river07     	296	not_alive	0	moves	1	natural 	1	n	0	0        	 	0.0	0	60.5027086001355	60.6027014001738	0.0999928000383079
80852	100	13	stimuli/plant/flower/plant_flower09.jpg          	1	1	1	plant_flower09.jpg   	plant    	6	flower    	16	flower09    	168	alive    	1	still	0	natural 	1	n	0	0        	 	0.0	0	60.6527111001778	60.752703800099	0.0999926999211311
81002	100	14	stimuli/animals2/pigeon/animal_pigeon07.jpg      	1	1	1	animal_pigeon07.jpg  	animals2 	1	pigeon    	28	pigeon07    	286	alive    	1	moves	1	natural 	1	n	0	0        	 	0.0	0	60.8027157001197	60.9027120000683	0.0999962999485433
81152	100	15	stimuli/plant2/lemontree/plant_lemontree05.jpg   	1	1	1	plant_lemontree05.jpg	plant2   	7	lemontree 	22	lemontree05 	224	alive    	1	still	0	natural 	1	n	0	0        	 	0.0	0	60.952718200162	61.0527132002171	0.0999950000550598
81302	100	16	stimuli/nonmovNat/cliff/nmn_cliff01.jpg          	1	1	1	nmn_cliff01.jpg      	nonmovNat	5	cliff     	7	cliff01     	70	not_alive	0	still	0	natural 	1	n	0	0        	 	0.0	0	61.1027224999852	61.2027144001331	0.0999919001478702
81452	100	17	stimuli/plant2/moss/plant_moss07.jpg             	1	1	1	plant_moss07.jpg     	plant2   	7	moss      	25	moss07      	256	alive    	1	still	0	natural 	1	n	0	0        	 	0.0	0	61.2527278000489	61.3527193001937	0.0999915001448244
81602	100	18	stimuli/plant/cactus/plant_cactus08.jpg          	1	1	1	plant_cactus08.jpg   	plant    	6	cactus    	4	cactus08    	47	alive    	1	still	0	natural 	1	n	0	0        	 	0.0	0	61.4027305000927	61.5027237001341	0.0999932000413537
81752	100	19	stimuli/animals2/bee/animal_bee07.jpg            	1	1	1	animal_bee07.jpg     	animals2 	1	bee       	0	bee07       	6	alive    	1	moves	1	natural 	1	n	0	0        	 	0.0	0	61.5527340001427	61.6527271000668	0.0999930999241769
81902	100	20	stimuli/plant/cactus/plant_cactus01.jpg          	1	1	1	plant_cactus01.jpg   	plant    	6	cactus    	4	cactus01    	40	alive    	1	still	0	natural 	1	n	1	0        	 	0.0	0	61.7027445000131	61.8027344001457	0.0999899001326412
82052	100	21	stimuli/animals/dog/animal_dog04.jpg             	1	1	1	animal_dog04.jpg     	animals  	0	dog       	11	dog04       	113	alive    	1	moves	1	natural 	1	n	0	0        	 	0.0	0	61.8527467001695	61.95273800008	0.0999912999104708
82202	100	22	stimuli/plant2/lemontree/plant_lemontree04.jpg   	1	1	1	plant_lemontree04.jpg	plant2   	7	lemontree 	22	lemontree04 	223	alive    	1	still	0	natural 	1	n	0	1        	f	0.391971500124782	1	62.0027495000977	62.1027441001497	0.099994600052014
82352	100	23	stimuli/nonmovArt/clothespeg/nma_clothespeg04.jpg	1	1	1	nma_clothespeg04.jpg 	nonmovArt	4	clothespeg	8	clothespeg04	83	not_alive	0	still	0	artefact	0	n	0	0        	 	0.0	0	62.1527539000381	62.2527505001053	0.099996600067243
82502	100	24	stimuli/nonmovArt/headphones/nma_headphones10.jpg	1	1	1	nma_headphones10.jpg 	nonmovArt	4	headphones	18	headphones10	189	not_alive	0	still	0	artefact	0	n	0	0        	 	0.0	0	62.3027652001474	62.4027513000183	0.0999860998708755
82652	100	25	stimuli/nonmovNat/sand/nmn_sand06.jpg            	1	1	1	nmn_sand06.jpg       	nonmovNat	5	sand      	31	sand06      	315	not_alive	0	still	0	natural 	1	n	0	0        	 	0.0	0	62.4527631001547	62.5527572000865	0.0999940999317914
82802	100	26	stimuli/animals2/bee/animal_bee10.jpg            	1	1	1	animal_bee10.jpg     	animals2 	1	bee       	0	bee10       	9	alive    	1	moves	1	natural 	1	n	0	0        	 	0.0	0	62.6027628001757	62.7027573001105	0.0999944999348372
82952	100	27	stimuli/plant2/clover/plant_clover01.jpg         	1	1	1	plant_clover01.jpg   	plant2   	7	clover    	9	clover01    	90	alive    	1	still	0	natural 	1	n	0	0        	 	0.0	0	62.7527688001283	62.852761400165	0.099992600036785
83102	100	28	stimuli/animals2/pigeon/animal_pigeon08.jpg      	1	1	1	animal_pigeon08.jpg  	animals2 	1	pigeon    	28	pigeon08    	287	alive    	1	moves	1	natural 	1	n	0	0        	 	0.0	0	62.9027736000717	63.0027656999882	0.0999920999165624
83252	100	29	stimuli/plant2/lemontree/plant_lemontree10.jpg   	1	1	1	plant_lemontree10.jpg	plant2   	7	lemontree 	22	lemontree10 	229	alive    	1	still	0	natural 	1	n	0	0        	 	0.0	0	63.0527863001917	63.1527694000397	0.099983099848032
83402	100	30	stimuli/plant2/palmtree/plant_palmtree06.jpg     	1	1	1	plant_palmtree06.jpg 	plant2   	7	palmtree  	27	palmtree06  	275	alive    	1	still	0	natural 	1	n	0	0        	 	0.0	0	63.2027892000042	63.3027824000455	0.0999932000413537
83552	100	31	stimuli/plant2/fern/plant_fern09.jpg             	1	1	1	plant_fern09.jpg     	plant2   	7	fern      	14	fern09      	148	alive    	1	still	0	natural 	1	n	0	0        	 	0.0	0	63.3527824000921	63.4527752001304	0.0999928000383079
83702	100	32	stimuli/animals2/whale/animal_whale06.jpg        	1	1	1	animal_whale06.jpg   	animals2 	1	whale     	39	whale06     	395	alive    	1	moves	1	natural 	1	n	0	0        	 	0.0	0	63.5027877001558	63.6027795001864	0.0999918000306934
83852	100	33	stimuli/nonmovArt/lock/nma_lock05.jpg            	1	1	1	nma_lock05.jpg       	nonmovArt	4	lock      	24	lock05      	244	not_alive	0	still	0	artefact	0	n	0	0        	 	0.0	0	63.6527892001905	63.752785100136	0.0999958999454975
84002	100	34	stimuli/nonmovNat/rock/nmn_rock07.jpg            	1	1	1	nmn_rock07.jpg       	nonmovNat	5	rock      	30	rock07      	306	not_alive	0	still	0	natural 	1	n	0	0        	 	0.0	0	63.802795200143	63.9027891000733	0.0999938999302685
84152	100	35	stimuli/nonmovNat/rock/nmn_rock03.jpg            	1	1	1	nmn_rock03.jpg       	nonmovNat	5	rock      	30	rock03      	302	not_alive	0	still	0	natural 	1	n	0	0        	 	0.0	0	63.9527983001899	64.0527965000365	0.0999981998465955
84302	100	36	stimuli/plant2/fern/plant_fern09.jpg             	1	1	1	plant_fern09.jpg     	plant2   	7	fern      	14	fern09      	148	alive    	1	still	0	natural 	1	n	0	0        	 	0.0	0	64.1028028000146	64.2027958000545	0.0999930000398308
84452	100	37	stimuli/animals2/tiger/animal_tiger01.jpg        	1	1	1	animal_tiger01.jpg   	animals2 	1	tiger     	33	tiger01     	330	alive    	1	moves	1	natural 	1	n	0	0        	 	0.0	0	64.2528055000585	64.3527981000952	0.099992600036785
84602	100	38	stimuli/animals/cat/animal_cat02.jpg             	1	1	1	animal_cat02.jpg     	animals  	0	cat       	6	cat02       	61	alive    	1	moves	1	natural 	1	n	0	0        	 	0.0	0	64.402818800183	64.5028143001255	0.0999954999424517
84752	100	39	stimuli/plant2/palmtree/plant_palmtree10.jpg     	1	1	1	plant_palmtree10.jpg 	plant2   	7	palmtree  	27	palmtree10  	279	alive    	1	still	0	natural 	1	n	0	0        	 	0.0	0	64.5528151001781	64.6528080001008	0.099992899922654
84902	100	40	stimuli/nonmovNat/shell/nmn_shell09.jpg          	1	1	1	nmn_shell09.jpg      	nonmovNat	5	shell     	32	shell09     	328	not_alive	0	still	0	natural 	1	n	0	0        	 	0.0	0	64.7028177001048	64.8028101001401	0.0999924000352621
85052	100	41	stimuli/plant2/fern/plant_fern05.jpg             	1	1	1	plant_fern05.jpg     	plant2   	7	fern      	14	fern05      	144	alive    	1	still	0	natural 	1	n	0	0        	 	0.0	0	64.8528178001288	64.9528114001732	0.0999936000443995
85202	100	42	stimuli/nonmovArt/headphones/nma_headphones10.jpg	1	1	1	nma_headphones10.jpg 	nonmovArt	4	headphones	18	headphones10	189	not_alive	0	still	0	artefact	0	n	0	0        	 	0.0	0	65.0028241002001	65.1028183000162	0.0999941998161376
85352	100	43	stimuli/plant2/clover/plant_clover10.jpg         	1	1	1	plant_clover10.jpg   	plant2   	7	clover    	9	clover10    	99	alive    	1	still	0	natural 	1	n	0	0        	 	0.0	0	65.152828700142	65.2528223001864	0.0999936000443995
85502	100	44	stimuli/nonmovNat/shell/nmn_shell06.jpg          	1	1	1	nmn_shell06.jpg      	nonmovNat	5	shell     	32	shell06     	325	not_alive	0	still	0	natural 	1	n	0	0        	 	0.0	0	65.3028295000549	65.402824900113	0.0999954000581056
85652	100	45	stimuli/movNat/waves/mn_waves09.jpg              	1	1	1	mn_waves09.jpg       	movNat   	3	waves     	38	waves09     	388	not_alive	0	moves	1	natural 	1	n	0	0        	 	0.0	0	65.4528348001186	65.552828400163	0.0999936000443995
85802	100	46	stimuli/plant/vine/plant_vine02.jpg              	1	1	1	plant_vine02.jpg     	plant    	6	vine      	36	vine02      	361	alive    	1	still	0	natural 	1	n	0	0        	 	0.0	0	65.6028379001655	65.7028291001916	0.0999912000261247
85952	100	47	stimuli/animals2/lemur/animal_lemur08.jpg        	1	1	1	animal_lemur08.jpg   	animals2 	1	lemur     	23	lemur08     	237	alive    	1	moves	1	natural 	1	n	1	0        	 	0.0	0	65.7528427001089	65.8528239000589	0.0999811999499798
86102	100	48	stimuli/movNat/waterfall/mn_waterfall01.jpg      	1	1	1	mn_waterfall01.jpg   	movNat   	3	waterfall 	37	waterfall01 	370	not_alive	0	moves	1	natural 	1	n	0	0        	 	0.0	0	65.9028346000705	66.0028298001271	0.0999952000565827
86252	100	49	stimuli/plant2/palmtree/plant_palmtree02.jpg     	1	1	1	plant_palmtree02.jpg 	plant2   	7	palmtree  	27	palmtree02  	271	alive    	1	still	0	natural 	1	n	0	1        	f	0.292156900046393	1	66.0528409001418	66.1528318000492	0.099990899907425
86402	100	50	stimuli/movNat/hotspring/mn_hotspring08.jpg      	1	1	1	mn_hotspring08.jpg   	movNat   	3	hotspring 	21	hotspring08 	217	not_alive	0	moves	1	natural 	1	n	0	0        	 	0.0	0	66.2028428001795	66.3028367001098	0.0999938999302685
86552	100	51	stimuli/animals/horse/animal_horse01.jpg         	1	1	1	animal_horse01.jpg   	animals  	0	horse     	20	horse01     	200	alive    	1	moves	1	natural 	1	n	0	0        	 	0.0	0	66.3528441002127	66.4528389000334	0.0999947998207062
86702	100	52	stimuli/nonmovNat/shell/nmn_shell10.jpg          	1	1	1	nmn_shell10.jpg      	nonmovNat	5	shell     	32	shell10     	329	not_alive	0	still	0	natural 	1	n	0	0        	 	0.0	0	66.5028494000435	66.6028426000849	0.0999932000413537
86852	100	53	stimuli/animals2/whale/animal_whale05.jpg        	1	1	1	animal_whale05.jpg   	animals2 	1	whale     	39	whale05     	394	alive    	1	moves	1	natural 	1	n	1	0        	 	0.0	0	66.6528708001133	66.7528466000222	0.0999757999088615
87002	100	54	stimuli/plant/vine/plant_vine07.jpg              	1	1	1	plant_vine07.jpg     	plant    	6	vine      	36	vine07      	366	alive    	1	still	0	natural 	1	n	0	0        	 	0.0	0	66.8028575000353	66.9028522002045	0.0999947001691908
87152	100	55	stimuli/animals2/lemur/animal_lemur07.jpg        	1	1	1	animal_lemur07.jpg   	animals2 	1	lemur     	23	lemur07     	236	alive    	1	moves	1	natural 	1	n	0	0        	 	0.0	0	66.9528591001872	67.0528686000034	0.100009499816224
87302	100	56	stimuli/animals2/lemur/animal_lemur09.jpg        	1	1	1	animal_lemur09.jpg   	animals2 	1	lemur     	23	lemur09     	238	alive    	1	moves	1	natural 	1	n	0	0        	 	0.0	0	67.102864000015	67.2028561001644	0.0999921001493931
87452	100	57	stimuli/animals/horse/animal_horse09.jpg         	1	1	1	animal_horse09.jpg   	animals  	0	horse     	20	horse09     	208	alive    	1	moves	1	natural 	1	n	0	0        	 	0.0	0	67.2528716002125	67.3528619001154	0.0999902999028564
87602	100	58	stimuli/nonmovNat/cliff/nmn_cliff07.jpg          	1	1	1	nmn_cliff07.jpg      	nonmovNat	5	cliff     	7	cliff07     	76	not_alive	0	still	0	natural 	1	n	0	0        	 	0.0	0	67.4028713000007	67.5028656001668	0.099994300166145
87752	100	59	stimuli/movArt/bus/ma_bus06.jpg                  	1	1	1	ma_bus06.jpg         	movArt   	2	bus       	3	bus06       	35	not_alive	0	moves	1	artefact	0	n	0	0        	 	0.0	0	67.5528731001541	67.6528831000905	0.100009999936447
87902	100	60	stimuli/movNat/fire/mn_fire09.jpg                	1	1	1	mn_fire09.jpg        	movNat   	3	fire      	15	fire09      	158	not_alive	0	moves	1	natural 	1	n	0	0        	 	0.0	0	67.7028793999925	67.8028725001495	0.0999931001570076
88052	100	61	stimuli/plant/vine/plant_vine01.jpg              	1	1	1	plant_vine01.jpg     	plant    	6	vine      	36	vine01      	360	alive    	1	still	0	natural 	1	n	0	0        	 	0.0	0	67.8529000000563	67.9528747000732	0.0999747000169009
88202	100	62	stimuli/nonmovArt/headphones/nma_headphones05.jpg	1	1	1	nma_headphones05.jpg 	nonmovArt	4	headphones	18	headphones05	184	not_alive	0	still	0	artefact	0	n	0	0        	 	0.0	0	68.0028862000909	68.1028801000211	0.0999938999302685
88352	100	63	stimuli/movNat/waves/mn_waves05.jpg              	1	1	1	mn_waves05.jpg       	movNat   	3	waves     	38	waves05     	384	not_alive	0	moves	1	natural 	1	n	0	0        	 	0.0	0	68.1528901001438	68.2528857002035	0.0999956000596285
88502	100	64	stimuli/nonmovArt/bench/nma_bench10.jpg          	1	1	1	nma_bench10.jpg      	nonmovArt	4	bench     	1	bench10     	19	not_alive	0	still	0	artefact	0	n	0	0        	 	0.0	0	68.3028938001953	68.4028877001256	0.0999938999302685
88652	100	65	stimuli/plant/grass/plant_grass06.jpg            	1	1	1	plant_grass06.jpg    	plant    	6	grass     	17	grass06     	175	alive    	1	still	0	natural 	1	n	0	0        	 	0.0	0	68.4528980001342	68.5528904001694	0.0999924000352621
88802	100	66	stimuli/plant/flower/plant_flower05.jpg          	1	1	1	plant_flower05.jpg   	plant    	6	flower    	16	flower05    	164	alive    	1	still	0	natural 	1	n	0	0        	 	0.0	0	68.6029017001856	68.7028954999987	0.0999937998130918
88952	100	67	stimuli/animals/dolphin/animal_dolphin05.jpg     	1	1	1	animal_dolphin05.jpg 	animals  	0	dolphin   	12	dolphin05   	124	alive    	1	moves	1	natural 	1	n	0	0        	 	0.0	0	68.7529060000088	68.8528990000486	0.0999930000398308
89102	100	68	stimuli/nonmovArt/bench/nma_bench01.jpg          	1	1	1	nma_bench01.jpg      	nonmovArt	4	bench     	1	bench01     	10	not_alive	0	still	0	artefact	0	n	0	0        	 	0.0	0	68.9029086001683	69.0029031999875	0.0999945998191834
89252	100	69	stimuli/plant/tree/plant_tree09.jpg              	1	1	1	plant_tree09.jpg     	plant    	6	tree      	35	tree09      	358	alive    	1	still	0	natural 	1	n	0	0        	 	0.0	0	69.0529110000934	69.1529055000283	0.0999944999348372
89402	100	70	stimuli/nonmovArt/lock/nma_lock03.jpg            	1	1	1	nma_lock03.jpg       	nonmovArt	4	lock      	24	lock03      	242	not_alive	0	still	0	artefact	0	n	0	0        	 	0.0	0	69.2029178000521	69.3029072000645	0.0999894000124186
89552	100	71	stimuli/plant/tree/plant_tree05.jpg              	1	1	1	plant_tree05.jpg     	plant    	6	tree      	35	tree05      	354	alive    	1	still	0	natural 	1	n	0	0        	 	0.0	0	69.3529208002146	69.4529141001403	0.0999932999256998
89702	100	72	stimuli/animals/eagle/animal_eagle10.jpg         	1	1	1	animal_eagle10.jpg   	animals  	0	eagle     	13	eagle10     	139	alive    	1	moves	1	natural 	1	n	0	0        	 	0.0	0	69.5029249000363	69.6029192002025	0.099994300166145
89852	100	73	stimuli/nonmovNat/crystal/nmn_crystal09.jpg      	1	1	1	nmn_crystal09.jpg    	nonmovNat	5	crystal   	10	crystal09   	108	not_alive	0	still	0	natural 	1	n	0	0        	 	0.0	0	69.6529263001866	69.7529194001108	0.0999930999241769
90002	100	74	stimuli/movArt/helicopter/ma_helicopter02.jpg    	1	1	1	ma_helicopter02.jpg  	movArt   	2	helicopter	19	helicopter02	191	not_alive	0	moves	1	artefact	0	n	0	0        	 	0.0	0	69.8029283001088	69.9029221001547	0.0999938000459224
90152	100	75	stimuli/nonmovArt/mug/nma_mug05.jpg              	1	1	1	nma_mug05.jpg        	nonmovArt	4	mug       	26	mug05       	264	not_alive	0	still	0	artefact	0	n	0	0        	 	0.0	0	69.9529356001876	70.0529299001209	0.0999942999333143
90302	100	76	stimuli/plant/tree/plant_tree03.jpg              	1	1	1	plant_tree03.jpg     	plant    	6	tree      	35	tree03      	352	alive    	1	still	0	natural 	1	n	0	0        	 	0.0	0	70.1029389000032	70.2029328001663	0.0999939001630992
90452	100	77	stimuli/movNat/hotspring/mn_hotspring07.jpg      	1	1	1	mn_hotspring07.jpg   	movNat   	3	hotspring 	21	hotspring07 	216	not_alive	0	moves	1	natural 	1	n	0	0        	 	0.0	0	70.2529413001612	70.352934300201	0.0999930000398308
90602	100	78	stimuli/movArt/bus/ma_bus05.jpg                  	1	1	1	ma_bus05.jpg         	movArt   	2	bus       	3	bus05       	34	not_alive	0	moves	1	artefact	0	n	0	0        	 	0.0	0	70.4029441000894	70.5029392000288	0.0999950999394059
90752	100	79	stimuli/nonmovNat/sand/nmn_sand01.jpg            	1	1	1	nmn_sand01.jpg       	nonmovNat	5	sand      	31	sand01      	310	not_alive	0	still	0	natural 	1	n	0	0        	 	0.0	0	70.5529479000252	70.6529423000757	0.0999944000504911
97319	100	80	stimuli/plant2/clover/plant_clover08.jpg         	1	2	1	plant_clover08.jpg   	plant2   	7	clover    	9	clover08    	97	alive    	1	still	0	natural 	1	n	0	0        	 	0.0	0	77.1197839002125	77.2197709002066	0.0999869999941438
97469	100	81	stimuli/movArt/boat/ma_boat06.jpg                	1	2	1	ma_boat06.jpg        	movArt   	2	boat      	2	boat06      	25	not_alive	0	moves	1	artefact	0	n	0	0        	 	0.0	0	77.2697776001878	77.3697745001409	0.099996899953112
97619	100	82	stimuli/animals2/bee/animal_bee08.jpg            	1	2	1	animal_bee08.jpg     	animals2 	1	bee       	0	bee08       	7	alive    	1	moves	1	natural 	1	n	0	0        	 	0.0	0	77.4197833000217	77.5198047000449	0.100021400023252
97769	100	83	stimuli/movNat/waterfall/mn_waterfall01.jpg      	1	2	1	mn_waterfall01.jpg   	movNat   	3	waterfall 	37	waterfall01 	370	not_alive	0	moves	1	natural 	1	n	0	0        	 	0.0	0	77.5697873001918	77.6697796999943	0.0999923998024315
97919	100	84	stimuli/movArt/train/ma_train05.jpg              	1	2	1	ma_train05.jpg       	movArt   	2	train     	34	train05     	344	not_alive	0	moves	1	artefact	0	n	0	0        	 	0.0	0	77.719809200149	77.8197850000579	0.0999757999088615
98069	100	85	stimuli/animals/dog/animal_dog04.jpg             	1	2	1	animal_dog04.jpg     	animals  	0	dog       	11	dog04       	113	alive    	1	moves	1	natural 	1	n	0	0        	 	0.0	0	77.869794400176	77.9697875001002	0.0999930999241769
98219	100	86	stimuli/nonmovNat/sand/nmn_sand03.jpg            	1	2	1	nmn_sand03.jpg       	nonmovNat	5	sand      	31	sand03      	312	not_alive	0	still	0	natural 	1	n	0	0        	 	0.0	0	78.0197980999947	78.1197916001547	0.0999935001600534
98369	100	87	stimuli/animals2/tiger/animal_tiger04.jpg        	1	2	1	animal_tiger04.jpg   	animals2 	1	tiger     	33	tiger04     	333	alive    	1	moves	1	natural 	1	n	0	0        	 	0.0	0	78.1698011001572	78.2697947002016	0.0999936000443995
98519	100	88	stimuli/movNat/river/mn_river06.jpg              	1	2	1	mn_river06.jpg       	movNat   	3	river     	29	river06     	295	not_alive	0	moves	1	natural 	1	n	0	0        	 	0.0	0	78.319805300096	78.4197987001389	0.0999934000428766
98669	100	89	stimuli/movArt/car/ma_car10.jpg                  	1	2	1	ma_car10.jpg         	movArt   	2	car       	5	car10       	59	not_alive	0	moves	1	artefact	0	n	0	0        	 	0.0	0	78.4698226000182	78.5698185001966	0.0999959001783282
98819	100	90	stimuli/animals/eagle/animal_eagle08.jpg         	1	2	1	animal_eagle08.jpg   	animals  	0	eagle     	13	eagle08     	137	alive    	1	moves	1	natural 	1	n	0	0        	 	0.0	0	78.6198400000576	78.7198211001232	0.0999811000656336
98969	100	91	stimuli/nonmovArt/clothespeg/nma_clothespeg09.jpg	1	2	1	nma_clothespeg09.jpg 	nonmovArt	4	clothespeg	8	clothespeg09	88	not_alive	0	still	0	artefact	0	n	0	0        	 	0.0	0	78.7698165001348	78.8698072000407	0.0999906999059022
99119	100	92	stimuli/movArt/train/ma_train08.jpg              	1	2	1	ma_train08.jpg       	movArt   	2	train     	34	train08     	347	not_alive	0	moves	1	artefact	0	n	0	0        	 	0.0	0	78.9198195000645	79.01985170017	0.100032200105488
99269	100	93	stimuli/plant2/moss/plant_moss07.jpg             	1	2	1	plant_moss07.jpg     	plant2   	7	moss      	25	moss07      	256	alive    	1	still	0	natural 	1	n	0	0        	 	0.0	0	79.069825500017	79.1698173000477	0.0999918000306934
99419	100	94	stimuli/movArt/boat/ma_boat02.jpg                	1	2	1	ma_boat02.jpg        	movArt   	2	boat      	2	boat02      	21	not_alive	0	moves	1	artefact	0	n	0	0        	 	0.0	0	79.2198366001249	79.3198208000977	0.0999841999728233
99569	100	95	stimuli/animals2/tiger/animal_tiger07.jpg        	1	2	1	animal_tiger07.jpg   	animals2 	1	tiger     	33	tiger07     	336	alive    	1	moves	1	natural 	1	n	0	0        	 	0.0	0	79.3698311999906	79.4698212000076	0.0999900000169873
99719	100	96	stimuli/nonmovNat/crystal/nmn_crystal05.jpg      	1	2	1	nmn_crystal05.jpg    	nonmovNat	5	crystal   	10	crystal05   	104	not_alive	0	still	0	natural 	1	n	0	0        	 	0.0	0	79.519834900042	79.6198282002006	0.0999933001585305
99869	100	97	stimuli/nonmovNat/cliff/nmn_cliff08.jpg          	1	2	1	nmn_cliff08.jpg      	nonmovNat	5	cliff     	7	cliff08     	77	not_alive	0	still	0	natural 	1	n	0	0        	 	0.0	0	79.6698351001833	79.7698603000026	0.100025199819356
100019	100	98	stimuli/nonmovArt/mug/nma_mug07.jpg              	1	2	1	nma_mug07.jpg        	nonmovArt	4	mug       	26	mug07       	266	not_alive	0	still	0	artefact	0	n	0	0        	 	0.0	0	79.8198432000354	79.919836900197	0.0999937001615763
100169	100	99	stimuli/animals/dolphin/animal_dolphin06.jpg     	1	2	1	animal_dolphin06.jpg 	animals  	0	dolphin   	12	dolphin06   	125	alive    	1	moves	1	natural 	1	n	0	0        	 	0.0	0	79.9698468002025	80.0698510000948	0.100004199892282
100319	100	100	stimuli/movArt/car/ma_car03.jpg                  	1	2	1	ma_car03.jpg         	movArt   	2	car       	5	car03       	52	not_alive	0	moves	1	artefact	0	n	0	0        	 	0.0	0	80.1198534001596	80.2198450001888	0.0999916000291705
100469	100	101	stimuli/movArt/train/ma_train08.jpg              	1	2	1	ma_train08.jpg       	movArt   	2	train     	34	train08     	347	not_alive	0	moves	1	artefact	0	n	0	0        	 	0.0	0	80.269852100173	80.3698732000776	0.100021099904552
100619	100	102	stimuli/movArt/car/ma_car04.jpg                  	1	2	1	ma_car04.jpg         	movArt   	2	car       	5	car04       	53	not_alive	0	moves	1	artefact	0	n	0	0        	 	0.0	0	80.4198580000084	80.5198642001487	0.100006200140342
100769	100	103	stimuli/plant/flower/plant_flower03.jpg          	1	2	1	plant_flower03.jpg   	plant    	6	flower    	16	flower03    	162	alive    	1	still	0	natural 	1	n	0	0        	 	0.0	0	80.5698597000446	80.6698510001879	0.0999913001433015
100919	100	104	stimuli/movNat/fire/mn_fire09.jpg                	1	2	1	mn_fire09.jpg        	movNat   	3	fire      	15	fire09      	158	not_alive	0	moves	1	natural 	1	n	0	0        	 	0.0	0	80.7198650999926	80.819873200031	0.100008100038394
101069	100	105	stimuli/animals/cat/animal_cat10.jpg             	1	2	1	animal_cat10.jpg     	animals  	0	cat       	6	cat10       	69	alive    	1	moves	1	natural 	1	n	0	0        	 	0.0	0	80.8698615999892	80.9698620000854	0.100000400096178
101219	100	106	stimuli/nonmovNat/rock/nmn_rock04.jpg            	1	2	1	nmn_rock04.jpg       	nonmovNat	5	rock      	30	rock04      	303	not_alive	0	still	0	natural 	1	n	0	0        	 	0.0	0	81.0198710002005	81.1198768999893	0.100005899788812
101369	100	107	stimuli/animals/cat/animal_cat10.jpg             	1	2	1	animal_cat10.jpg     	animals  	0	cat       	6	cat10       	69	alive    	1	moves	1	natural 	1	n	0	0        	 	0.0	0	81.1698771000374	81.2698659000453	0.0999888000078499
101519	100	108	stimuli/movNat/waves/mn_waves06.jpg              	1	2	1	mn_waves06.jpg       	movNat   	3	waves     	38	waves06     	385	not_alive	0	moves	1	natural 	1	n	0	0        	 	0.0	0	81.3198794000782	81.4198732001241	0.0999938000459224
101669	100	109	stimuli/animals/horse/animal_horse06.jpg         	1	2	1	animal_horse06.jpg   	animals  	0	horse     	20	horse06     	205	alive    	1	moves	1	natural 	1	n	0	0        	 	0.0	0	81.4698799999896	81.5698793001939	0.0999993002042174
101819	100	110	stimuli/movArt/boat/ma_boat07.jpg                	1	2	1	ma_boat07.jpg        	movArt   	2	boat      	2	boat07      	26	not_alive	0	moves	1	artefact	0	n	0	0        	 	0.0	0	81.6199170001782	81.7198803001083	0.0999632999300957
101969	100	111	stimuli/animals2/pigeon/animal_pigeon05.jpg      	1	2	1	animal_pigeon05.jpg  	animals2 	1	pigeon    	28	pigeon05    	284	alive    	1	moves	1	natural 	1	n	0	0        	 	0.0	0	81.7698917000089	81.8698849000502	0.0999932000413537
102119	100	112	stimuli/nonmovNat/crystal/nmn_crystal03.jpg      	1	2	1	nmn_crystal03.jpg    	nonmovNat	5	crystal   	10	crystal03   	102	not_alive	0	still	0	natural 	1	n	0	0        	 	0.0	0	81.9198938000482	82.0198882000987	0.0999944000504911
102269	100	113	stimuli/animals/dog/animal_dog02.jpg             	1	2	1	animal_dog02.jpg     	animals  	0	dog       	11	dog02       	111	alive    	1	moves	1	natural 	1	n	0	0        	 	0.0	0	82.0698970002122	82.1698925001547	0.0999954999424517
102419	100	114	stimuli/movNat/hotspring/mn_hotspring04.jpg      	1	2	1	mn_hotspring04.jpg   	movNat   	3	hotspring 	21	hotspring04 	213	not_alive	0	moves	1	natural 	1	n	0	0        	 	0.0	0	82.2199283000082	82.3198948001955	0.0999665001872927
102569	100	115	stimuli/plant/grass/plant_grass09.jpg            	1	2	1	plant_grass09.jpg    	plant    	6	grass     	17	grass09     	178	alive    	1	still	0	natural 	1	n	0	0        	 	0.0	0	82.3699185000733	82.469896200113	0.0999777000397444
102719	100	116	stimuli/plant/cactus/plant_cactus08.jpg          	1	2	1	plant_cactus08.jpg   	plant    	6	cactus    	4	cactus08    	47	alive    	1	still	0	natural 	1	n	0	0        	 	0.0	0	82.5199098000303	82.6199018000625	0.0999920000322163
102869	100	117	stimuli/nonmovArt/mug/nma_mug01.jpg              	1	2	1	nma_mug01.jpg        	nonmovArt	4	mug       	26	mug01       	260	not_alive	0	still	0	artefact	0	n	0	0        	 	0.0	0	82.66990980017	82.7699032002129	0.0999934000428766
103019	100	118	stimuli/plant2/moss/plant_moss04.jpg             	1	2	1	plant_moss04.jpg     	plant2   	7	moss      	25	moss04      	253	alive    	1	still	0	natural 	1	n	0	0        	 	0.0	0	82.8199174001347	82.9199106001761	0.0999932000413537
103169	100	119	stimuli/movArt/helicopter/ma_helicopter07.jpg    	1	2	1	ma_helicopter07.jpg  	movArt   	2	helicopter	19	helicopter07	196	not_alive	0	moves	1	artefact	0	n	0	0        	 	0.0	0	82.9699391000904	83.0699117002077	0.0999726001173258
103319	100	120	stimuli/movNat/waves/mn_waves07.jpg              	1	2	1	mn_waves07.jpg       	movNat   	3	waves     	38	waves07     	386	not_alive	0	moves	1	natural 	1	n	0	0        	 	0.0	0	83.1199271001387	83.2199169001542	0.0999898000154644
103469	100	121	stimuli/movNat/river/mn_river03.jpg              	1	2	1	mn_river03.jpg       	movNat   	3	river     	29	river03     	292	not_alive	0	moves	1	natural 	1	n	0	0        	 	0.0	0	83.2699351999909	83.3699344000779	0.0999992000870407
103619	100	122	stimuli/animals/dolphin/animal_dolphin06.jpg     	1	2	1	animal_dolphin06.jpg 	animals  	0	dolphin   	12	dolphin06   	125	alive    	1	moves	1	natural 	1	n	0	0        	 	0.0	0	83.4199309002142	83.5199230001308	0.0999920999165624
103769	100	123	stimuli/movArt/train/ma_train02.jpg              	1	2	1	ma_train02.jpg       	movArt   	2	train     	34	train02     	341	not_alive	0	moves	1	artefact	0	n	0	0        	 	0.0	0	83.5699357001577	83.6699318001047	0.0999960999470204
103919	100	124	stimuli/animals/dolphin/animal_dolphin03.jpg     	1	2	1	animal_dolphin03.jpg 	animals  	0	dolphin   	12	dolphin03   	122	alive    	1	moves	1	natural 	1	n	0	0        	 	0.0	0	83.7199371000752	83.8199309001211	0.0999938000459224
104069	100	125	stimuli/nonmovNat/sand/nmn_sand10.jpg            	1	2	1	nmn_sand10.jpg       	nonmovNat	5	sand      	31	sand10      	319	not_alive	0	still	0	natural 	1	n	0	1        	f	0.0	0	83.8699744001497	83.9699339000508	0.0999594999011606
104219	100	126	stimuli/movArt/train/ma_train10.jpg              	1	2	1	ma_train10.jpg       	movArt   	2	train     	34	train10     	349	not_alive	0	moves	1	artefact	0	n	0	0        	 	0.0	0	84.0199648002163	84.1199405000079	0.0999756997916848
104369	100	127	stimuli/movNat/fire/mn_fire03.jpg                	1	2	1	mn_fire03.jpg        	movNat   	3	fire      	15	fire03      	152	not_alive	0	moves	1	natural 	1	n	0	0        	 	0.0	0	84.1699505001307	84.2699617000762	0.100011199945584
104519	100	128	stimuli/nonmovArt/clothespeg/nma_clothespeg03.jpg	1	2	1	nma_clothespeg03.jpg 	nonmovArt	4	clothespeg	8	clothespeg03	82	not_alive	0	still	0	artefact	0	n	0	0        	 	0.0	0	84.3199540001806	84.4199485001154	0.0999944999348372
104669	100	129	stimuli/animals2/bee/animal_bee04.jpg            	1	2	1	animal_bee04.jpg     	animals2 	1	bee       	0	bee04       	3	alive    	1	moves	1	natural 	1	n	0	0        	 	0.0	0	84.4699568001088	84.5699458001182	0.0999890000093728
104819	100	130	stimuli/movNat/fire/mn_fire01.jpg                	1	2	1	mn_fire01.jpg        	movNat   	3	fire      	15	fire01      	150	not_alive	0	moves	1	natural 	1	n	0	0        	 	0.0	0	84.619958500145	84.7199552000966	0.0999966999515891
104969	100	131	stimuli/nonmovArt/clothespeg/nma_clothespeg01.jpg	1	2	1	nma_clothespeg01.jpg 	nonmovArt	4	clothespeg	8	clothespeg01	80	not_alive	0	still	0	artefact	0	n	0	0        	 	0.0	0	84.7699630002026	84.8699568000156	0.0999937998130918
105119	100	132	stimuli/movArt/helicopter/ma_helicopter06.jpg    	1	2	1	ma_helicopter06.jpg  	movArt   	2	helicopter	19	helicopter06	195	not_alive	0	moves	1	artefact	0	n	0	0        	 	0.0	0	84.9199683000334	85.0199610001873	0.0999927001539618
105269	100	133	stimuli/nonmovNat/cliff/nmn_cliff03.jpg          	1	2	1	nmn_cliff03.jpg      	nonmovNat	5	cliff     	7	cliff03     	72	not_alive	0	still	0	natural 	1	n	0	0        	 	0.0	0	85.0699735002127	85.1699638999999	0.0999903997872025
105419	100	134	stimuli/nonmovNat/cliff/nmn_cliff04.jpg          	1	2	1	nmn_cliff04.jpg      	nonmovNat	5	cliff     	7	cliff04     	73	not_alive	0	still	0	natural 	1	n	0	0        	 	0.0	0	85.2199752000161	85.3199962000363	0.100021000020206
105569	100	135	stimuli/plant/flower/plant_flower01.jpg          	1	2	1	plant_flower01.jpg   	plant    	6	flower    	16	flower01    	160	alive    	1	still	0	natural 	1	n	0	0        	 	0.0	0	85.3699798001908	85.4699719999917	0.0999921998009086
105719	100	136	stimuli/movArt/bus/ma_bus01.jpg                  	1	2	1	ma_bus01.jpg         	movArt   	2	bus       	3	bus01       	30	not_alive	0	moves	1	artefact	0	n	0	0        	 	0.0	0	85.5199843000155	85.6199744001497	0.0999901001341641
105869	100	137	stimuli/plant/vine/plant_vine10.jpg              	1	2	1	plant_vine10.jpg     	plant    	6	vine      	36	vine10      	369	alive    	1	still	0	natural 	1	n	0	0        	 	0.0	0	85.6699901001994	85.7699786000885	0.0999884998891503
106019	100	138	stimuli/nonmovArt/clothespeg/nma_clothespeg10.jpg	1	2	1	nma_clothespeg10.jpg 	nonmovArt	4	clothespeg	8	clothespeg10	89	not_alive	0	still	0	artefact	0	n	0	0        	 	0.0	0	85.8199888002127	85.9199977000244	0.100008899811655
106169	100	139	stimuli/nonmovArt/mug/nma_mug06.jpg              	1	2	1	nma_mug06.jpg        	nonmovArt	4	mug       	26	mug06       	265	not_alive	0	still	0	artefact	0	n	1	0        	 	0.0	0	85.9699947000481	86.0699940000195	0.0999992999713868
106319	100	140	stimuli/plant2/lemontree/plant_lemontree09.jpg   	1	2	1	plant_lemontree09.jpg	plant2   	7	lemontree 	22	lemontree09 	228	alive    	1	still	0	natural 	1	n	0	0        	 	0.0	0	86.119997800095	86.2200091001578	0.100011300062761
106469	100	141	stimuli/plant/grass/plant_grass01.jpg            	1	2	1	plant_grass01.jpg    	plant    	6	grass     	17	grass01     	170	alive    	1	still	0	natural 	1	n	0	0        	 	0.0	0	86.2699994000141	86.369993600063	0.0999942000489682
106619	100	142	stimuli/nonmovArt/bench/nma_bench07.jpg          	1	2	1	nma_bench07.jpg      	nonmovArt	4	bench     	1	bench07     	16	not_alive	0	still	0	artefact	0	n	0	0        	 	0.0	0	86.4200101001188	86.5199982000049	0.0999880998861045
106769	100	143	stimuli/animals/eagle/animal_eagle01.jpg         	1	2	1	animal_eagle01.jpg   	animals  	0	eagle     	13	eagle01     	130	alive    	1	moves	1	natural 	1	n	0	0        	 	0.0	0	86.5700098001398	86.6700193001889	0.100009500049055
106919	100	144	stimuli/animals2/pigeon/animal_pigeon01.jpg      	1	2	1	animal_pigeon01.jpg  	animals2 	1	pigeon    	28	pigeon01    	280	alive    	1	moves	1	natural 	1	n	0	0        	 	0.0	0	86.7200120000634	86.8200139000546	0.100001899991184
107069	100	145	stimuli/movArt/bus/ma_bus09.jpg                  	1	2	1	ma_bus09.jpg         	movArt   	2	bus       	3	bus09       	38	not_alive	0	moves	1	artefact	0	n	0	0        	 	0.0	0	86.8700157999992	86.9700088000391	0.0999930000398308
107219	100	146	stimuli/nonmovNat/rock/nmn_rock02.jpg            	1	2	1	nmn_rock02.jpg       	nonmovNat	5	rock      	30	rock02      	301	not_alive	0	still	0	natural 	1	n	1	0        	 	0.0	0	87.0200175000355	87.1200125000905	0.0999950000550598
107369	100	147	stimuli/nonmovArt/lock/nma_lock07.jpg            	1	2	1	nma_lock07.jpg       	nonmovArt	4	lock      	24	lock07      	246	not_alive	0	still	0	artefact	0	n	0	0        	 	0.0	0	87.1700531002134	87.2700172001496	0.0999640999361873
107519	100	148	stimuli/plant2/clover/plant_clover06.jpg         	1	2	1	plant_clover06.jpg   	plant2   	7	clover    	9	clover06    	95	alive    	1	still	0	natural 	1	n	0	0        	 	0.0	0	87.3200258000288	87.420020500198	0.0999947001691908
107669	100	149	stimuli/animals2/whale/animal_whale10.jpg        	1	2	1	animal_whale10.jpg   	animals2 	1	whale     	39	whale10     	399	alive    	1	moves	1	natural 	1	n	0	1        	f	0.541987100150436	1	87.4700345001183	87.5700237001292	0.0999892000108957
107819	100	150	stimuli/plant/tree/plant_tree08.jpg              	1	2	1	plant_tree08.jpg     	plant    	6	tree      	35	tree08      	357	alive    	1	still	0	natural 	1	n	0	0        	 	0.0	0	87.620035200147	87.7200278001837	0.099992600036785
107969	100	151	stimuli/movNat/hotspring/mn_hotspring10.jpg      	1	2	1	mn_hotspring10.jpg   	movNat   	3	hotspring 	21	hotspring10 	219	not_alive	0	moves	1	natural 	1	n	0	0        	 	0.0	0	87.7700724001043	87.8700491001364	0.0999767000321299
108119	100	152	stimuli/animals/horse/animal_horse10.jpg         	1	2	1	animal_horse10.jpg   	animals  	0	horse     	20	horse10     	209	alive    	1	moves	1	natural 	1	n	0	0        	 	0.0	0	87.9200627000537	88.0200347001664	0.0999720001127571
108269	100	153	stimuli/nonmovNat/rock/nmn_rock10.jpg            	1	2	1	nmn_rock10.jpg       	nonmovNat	5	rock      	30	rock10      	309	not_alive	0	still	0	natural 	1	n	0	0        	 	0.0	0	88.0700714001432	88.1700384002179	0.0999670000746846
108419	100	154	stimuli/animals/eagle/animal_eagle07.jpg         	1	2	1	animal_eagle07.jpg   	animals  	0	eagle     	13	eagle07     	136	alive    	1	moves	1	natural 	1	n	0	0        	 	0.0	0	88.2200506001245	88.3200589001644	0.100008300039917
108569	100	155	stimuli/animals/cat/animal_cat01.jpg             	1	2	1	animal_cat01.jpg     	animals  	0	cat       	6	cat01       	60	alive    	1	moves	1	natural 	1	n	0	0        	 	0.0	0	88.370052000042	88.4700930002145	0.100041000172496
108719	100	156	stimuli/plant2/lemontree/plant_lemontree08.jpg   	1	2	1	plant_lemontree08.jpg	plant2   	7	lemontree 	22	lemontree08 	227	alive    	1	still	0	natural 	1	n	0	0        	 	0.0	0	88.5200740001164	88.6200509001501	0.0999769000336528
108869	100	157	stimuli/plant/tree/plant_tree09.jpg              	1	2	1	plant_tree09.jpg     	plant    	6	tree      	35	tree09      	358	alive    	1	still	0	natural 	1	n	0	0        	 	0.0	0	88.6701111001894	88.7700527000707	0.0999415998812765
109019	100	158	stimuli/movNat/fire/mn_fire10.jpg                	1	2	1	mn_fire10.jpg        	movNat   	3	fire      	15	fire10      	159	not_alive	0	moves	1	natural 	1	n	0	0        	 	0.0	0	88.8200640000869	88.9200554999988	0.0999914999119937
109169	100	159	stimuli/movArt/boat/ma_boat05.jpg                	1	2	1	ma_boat05.jpg        	movArt   	2	boat      	2	boat05      	24	not_alive	0	moves	1	artefact	0	n	0	0        	 	0.0	0	88.9700683001429	89.0700609001797	0.099992600036785
112486	100	160	stimuli/animals/cat/animal_cat06.jpg             	1	3	1	animal_cat06.jpg     	animals  	0	cat       	6	cat06       	65	alive    	1	moves	1	natural 	1	n	0	0        	 	0.0	0	92.2868261002004	92.386814400088	0.0999882998876274
112636	100	161	stimuli/plant/flower/plant_flower05.jpg          	1	3	1	plant_flower05.jpg   	plant    	6	flower    	16	flower05    	164	alive    	1	still	0	natural 	1	n	0	0        	 	0.0	0	92.4368269001134	92.5368200000376	0.0999930999241769
112786	100	162	stimuli/nonmovArt/bench/nma_bench09.jpg          	1	3	1	nma_bench09.jpg      	nonmovArt	4	bench     	1	bench09     	18	not_alive	0	still	0	artefact	0	n	0	0        	 	0.0	0	92.5868277000263	92.6868210001849	0.0999933001585305
112936	100	163	stimuli/animals2/pigeon/animal_pigeon08.jpg      	1	3	1	animal_pigeon08.jpg  	animals2 	1	pigeon    	28	pigeon08    	287	alive    	1	moves	1	natural 	1	n	0	0        	 	0.0	0	92.7368342000991	92.8368355000857	0.100001299986616
113086	100	164	stimuli/nonmovNat/cliff/nmn_cliff10.jpg          	1	3	1	nmn_cliff10.jpg      	nonmovNat	5	cliff     	7	cliff10     	79	not_alive	0	still	0	natural 	1	n	0	0        	 	0.0	0	92.8868476999923	92.9868269001599	0.0999792001675814
113236	100	165	stimuli/movNat/river/mn_river09.jpg              	1	3	1	mn_river09.jpg       	movNat   	3	river     	29	river09     	298	not_alive	0	moves	1	natural 	1	n	0	0        	 	0.0	0	93.0368426002096	93.1368325999938	0.0999899997841567
113386	100	166	stimuli/plant2/palmtree/plant_palmtree09.jpg     	1	3	1	plant_palmtree09.jpg 	plant2   	7	palmtree  	27	palmtree09  	278	alive    	1	still	0	natural 	1	n	0	0        	 	0.0	0	93.1868433000054	93.2868373000529	0.0999940000474453
113536	100	167	stimuli/movNat/river/mn_river01.jpg              	1	3	1	mn_river01.jpg       	movNat   	3	river     	29	river01     	290	not_alive	0	moves	1	natural 	1	n	0	0        	 	0.0	0	93.3368458000477	93.4368514001835	0.100005600135773
113686	100	168	stimuli/nonmovArt/lock/nma_lock02.jpg            	1	3	1	nma_lock02.jpg       	nonmovArt	4	lock      	24	lock02      	241	not_alive	0	still	0	artefact	0	n	0	0        	 	0.0	0	93.4868499001022	93.5868486000691	0.0999986999668181
113836	100	169	stimuli/movArt/train/ma_train06.jpg              	1	3	1	ma_train06.jpg       	movArt   	2	train     	34	train06     	345	not_alive	0	moves	1	artefact	0	n	0	0        	 	0.0	0	93.636856400175	93.7368476002011	0.0999912000261247
113986	100	170	stimuli/nonmovArt/headphones/nma_headphones08.jpg	1	3	1	nma_headphones08.jpg 	nonmovArt	4	headphones	18	headphones08	187	not_alive	0	still	0	artefact	0	n	0	0        	 	0.0	0	93.786857200088	93.8868508001324	0.0999936000443995
114136	100	171	stimuli/movArt/boat/ma_boat09.jpg                	1	3	1	ma_boat09.jpg        	movArt   	2	boat      	2	boat09      	28	not_alive	0	moves	1	artefact	0	n	0	0        	 	0.0	0	93.9368637001608	94.0368566000834	0.099992899922654
114286	100	172	stimuli/movArt/car/ma_car06.jpg                  	1	3	1	ma_car06.jpg         	movArt   	2	car       	5	car06       	55	not_alive	0	moves	1	artefact	0	n	0	0        	 	0.0	0	94.0868651000783	94.1868694000877	0.100004300009459
114436	100	173	stimuli/animals2/pigeon/animal_pigeon10.jpg      	1	3	1	animal_pigeon10.jpg  	animals2 	1	pigeon    	28	pigeon10    	289	alive    	1	moves	1	natural 	1	n	0	0        	 	0.0	0	94.2368696001358	94.3368611000478	0.0999914999119937
114586	100	174	stimuli/movNat/waves/mn_waves01.jpg              	1	3	1	mn_waves01.jpg       	movNat   	3	waves     	38	waves01     	380	not_alive	0	moves	1	natural 	1	n	0	0        	 	0.0	0	94.3868712000549	94.4868672001176	0.0999960000626743
114736	100	175	stimuli/plant/vine/plant_vine03.jpg              	1	3	1	plant_vine03.jpg     	plant    	6	vine      	36	vine03      	362	alive    	1	still	0	natural 	1	n	0	0        	 	0.0	0	94.5368790000211	94.6368736000731	0.099994600052014
114886	100	176	stimuli/plant2/fern/plant_fern05.jpg             	1	3	1	plant_fern05.jpg     	plant2   	7	fern      	14	fern05      	144	alive    	1	still	0	natural 	1	n	0	0        	 	0.0	0	94.6868794001639	94.7868729000911	0.0999934999272227
115036	100	177	stimuli/plant2/clover/plant_clover06.jpg         	1	3	1	plant_clover06.jpg   	plant2   	7	clover    	9	clover06    	95	alive    	1	still	0	natural 	1	n	0	0        	 	0.0	0	94.8368844001089	94.9368758001365	0.0999914000276476
115186	100	178	stimuli/animals2/whale/animal_whale10.jpg        	1	3	1	animal_whale10.jpg   	animals2 	1	whale     	39	whale10     	399	alive    	1	moves	1	natural 	1	n	0	0        	 	0.0	0	94.9868856000248	95.0868811002001	0.0999955001752824
115336	100	179	stimuli/nonmovNat/sand/nmn_sand07.jpg            	1	3	1	nmn_sand07.jpg       	nonmovNat	5	sand      	31	sand07      	316	not_alive	0	still	0	natural 	1	n	0	0        	 	0.0	0	95.1368939999956	95.236887200037	0.0999932000413537
115486	100	180	stimuli/nonmovArt/headphones/nma_headphones04.jpg	1	3	1	nma_headphones04.jpg 	nonmovArt	4	headphones	18	headphones04	183	not_alive	0	still	0	artefact	0	n	0	0        	 	0.0	0	95.2868961000349	95.3868878001813	0.0999917001463473
115636	100	181	stimuli/animals2/lemur/animal_lemur01.jpg        	1	3	1	animal_lemur01.jpg   	animals2 	1	lemur     	23	lemur01     	230	alive    	1	moves	1	natural 	1	n	0	0        	 	0.0	0	95.4368979001884	95.536891900003	0.0999939998146146
115786	100	182	stimuli/plant/vine/plant_vine03.jpg              	1	3	1	plant_vine03.jpg     	plant    	6	vine      	36	vine03      	362	alive    	1	still	0	natural 	1	n	0	0        	 	0.0	0	95.5869032000192	95.6869061000179	0.100002899998799
115936	100	183	stimuli/movNat/waterfall/mn_waterfall04.jpg      	1	3	1	mn_waterfall04.jpg   	movNat   	3	waterfall 	37	waterfall04 	373	not_alive	0	moves	1	natural 	1	n	0	0        	 	0.0	0	95.7369068001863	95.8368997999933	0.0999929998070002
116086	100	184	stimuli/nonmovNat/sand/nmn_sand02.jpg            	1	3	1	nmn_sand02.jpg       	nonmovNat	5	sand      	31	sand02      	311	not_alive	0	still	0	natural 	1	n	0	0        	 	0.0	0	95.8869110001251	95.9868999000173	0.0999888998921961
116236	100	185	stimuli/animals2/lemur/animal_lemur06.jpg        	1	3	1	animal_lemur06.jpg   	animals2 	1	lemur     	23	lemur06     	235	alive    	1	moves	1	natural 	1	n	0	0        	 	0.0	0	96.0369136000518	96.1369096999988	0.0999960999470204
116386	100	186	stimuli/plant/grass/plant_grass05.jpg            	1	3	1	plant_grass05.jpg    	plant    	6	grass     	17	grass05     	174	alive    	1	still	0	natural 	1	n	0	0        	 	0.0	0	96.1869166002143	96.2869224001188	0.100005799904466
116536	100	187	stimuli/nonmovNat/crystal/nmn_crystal10.jpg      	1	3	1	nmn_crystal10.jpg    	nonmovNat	5	crystal   	10	crystal10   	109	not_alive	0	still	0	natural 	1	n	0	0        	 	0.0	0	96.3369220001623	96.4369156002067	0.0999936000443995
116686	100	188	stimuli/nonmovArt/bench/nma_bench04.jpg          	1	3	1	nma_bench04.jpg      	nonmovArt	4	bench     	1	bench04     	13	not_alive	0	still	0	artefact	0	n	0	0        	 	0.0	0	96.4869270001072	96.5869205000345	0.0999934999272227
116836	100	189	stimuli/animals2/bee/animal_bee04.jpg            	1	3	1	animal_bee04.jpg     	animals2 	1	bee       	0	bee04       	3	alive    	1	moves	1	natural 	1	n	0	0        	 	0.0	0	96.6369283001404	96.7369227001909	0.0999944000504911
116986	100	190	stimuli/animals/dog/animal_dog03.jpg             	1	3	1	animal_dog03.jpg     	animals  	0	dog       	11	dog03       	112	alive    	1	moves	1	natural 	1	n	0	1        	f	0.0	0	96.786934300093	96.8869237999898	0.0999894998967648
117136	100	191	stimuli/plant/cactus/plant_cactus07.jpg          	1	3	1	plant_cactus07.jpg   	plant    	6	cactus    	4	cactus07    	46	alive    	1	still	0	natural 	1	n	0	0        	 	0.0	0	96.9369349000044	97.036928600166	0.0999937001615763
117286	100	192	stimuli/movNat/waterfall/mn_waterfall09.jpg      	1	3	1	mn_waterfall09.jpg   	movNat   	3	waterfall 	37	waterfall09 	378	not_alive	0	moves	1	natural 	1	n	0	0        	 	0.0	0	97.0869368000422	97.1869330001064	0.0999962000641972
117436	100	193	stimuli/animals/cat/animal_cat06.jpg             	1	3	1	animal_cat06.jpg     	animals  	0	cat       	6	cat06       	65	alive    	1	moves	1	natural 	1	n	0	0        	 	0.0	0	97.2369450000115	97.3369348000269	0.0999898000154644
117586	100	194	stimuli/movArt/car/ma_car01.jpg                  	1	3	1	ma_car01.jpg         	movArt   	2	car       	5	car01       	50	not_alive	0	moves	1	artefact	0	n	1	0        	 	0.0	0	97.3869488001801	97.4869368001819	0.0999880000017583
117736	100	195	stimuli/nonmovArt/headphones/nma_headphones05.jpg	1	3	1	nma_headphones05.jpg 	nonmovArt	4	headphones	18	headphones05	184	not_alive	0	still	0	artefact	0	n	0	0        	 	0.0	0	97.5369453001767	97.6369362000842	0.099990899907425
117886	100	196	stimuli/movArt/bus/ma_bus07.jpg                  	1	3	1	ma_bus07.jpg         	movArt   	2	bus       	3	bus07       	36	not_alive	0	moves	1	artefact	0	n	0	0        	 	0.0	0	97.686950000003	97.7869412000291	0.0999912000261247
118036	100	197	stimuli/plant/grass/plant_grass09.jpg            	1	3	1	plant_grass09.jpg    	plant    	6	grass     	17	grass09     	178	alive    	1	still	0	natural 	1	n	0	0        	 	0.0	0	97.8369533000514	97.9369616000913	0.100008300039917
118186	100	198	stimuli/plant2/fern/plant_fern01.jpg             	1	3	1	plant_fern01.jpg     	plant2   	7	fern      	14	fern01      	140	alive    	1	still	0	natural 	1	n	0	0        	 	0.0	0	97.9869546000846	98.086948200129	0.0999936000443995
118336	100	199	stimuli/nonmovNat/shell/nmn_shell09.jpg          	1	3	1	nmn_shell09.jpg      	nonmovNat	5	shell     	32	shell09     	328	not_alive	0	still	0	natural 	1	n	0	0        	 	0.0	0	98.1369587001391	98.236952900188	0.0999942000489682
118486	100	200	stimuli/movNat/hotspring/mn_hotspring01.jpg      	1	3	1	mn_hotspring01.jpg   	movNat   	3	hotspring 	21	hotspring01 	210	not_alive	0	moves	1	natural 	1	n	0	0        	 	0.0	0	98.2869618001859	98.3869560000021	0.0999941998161376
118636	100	201	stimuli/plant2/palmtree/plant_palmtree03.jpg     	1	3	1	plant_palmtree03.jpg 	plant2   	7	palmtree  	27	palmtree03  	272	alive    	1	still	0	natural 	1	n	0	0        	 	0.0	0	98.4369683000259	98.5369608001784	0.0999925001524389
118786	100	202	stimuli/nonmovArt/mug/nma_mug01.jpg              	1	3	1	nma_mug01.jpg        	nonmovArt	4	mug       	26	mug01       	260	not_alive	0	still	0	artefact	0	n	0	0        	 	0.0	0	98.5869704000652	98.6869638001081	0.0999934000428766
118936	100	203	stimuli/plant2/moss/plant_moss10.jpg             	1	3	1	plant_moss10.jpg     	plant2   	7	moss      	25	moss10      	259	alive    	1	still	0	natural 	1	n	0	0        	 	0.0	0	98.7369739001151	98.836968800053	0.099994899937883
119086	100	204	stimuli/animals2/tiger/animal_tiger04.jpg        	1	3	1	animal_tiger04.jpg   	animals2 	1	tiger     	33	tiger04     	333	alive    	1	moves	1	natural 	1	n	0	0        	 	0.0	0	98.8869801000692	98.9869666001759	0.0999865001067519
119236	100	205	stimuli/plant2/palmtree/plant_palmtree10.jpg     	1	3	1	plant_palmtree10.jpg 	plant2   	7	palmtree  	27	palmtree10  	279	alive    	1	still	0	natural 	1	n	0	0        	 	0.0	0	99.0369807002134	99.1369753000326	0.0999945998191834
119386	100	206	stimuli/animals/eagle/animal_eagle04.jpg         	1	3	1	animal_eagle04.jpg   	animals  	0	eagle     	13	eagle04     	133	alive    	1	moves	1	natural 	1	n	0	0        	 	0.0	0	99.1869861001614	99.2869780000765	0.0999918999150395
119536	100	207	stimuli/animals2/whale/animal_whale10.jpg        	1	3	1	animal_whale10.jpg   	animals2 	1	whale     	39	whale10     	399	alive    	1	moves	1	natural 	1	n	0	0        	 	0.0	0	99.3370130001567	99.4369828000199	0.0999697998631746
119686	100	208	stimuli/animals/dog/animal_dog08.jpg             	1	3	1	animal_dog08.jpg     	animals  	0	dog       	11	dog08       	117	alive    	1	moves	1	natural 	1	n	0	0        	 	0.0	0	99.4869925000239	99.5869849000592	0.0999924000352621
119836	100	209	stimuli/animals/dog/animal_dog10.jpg             	1	3	1	animal_dog10.jpg     	animals  	0	dog       	11	dog10       	119	alive    	1	moves	1	natural 	1	n	0	0        	 	0.0	0	99.6369966000784	99.7369897000026	0.0999930999241769
119986	100	210	stimuli/animals2/bee/animal_bee04.jpg            	1	3	1	animal_bee04.jpg     	animals2 	1	bee       	0	bee04       	3	alive    	1	moves	1	natural 	1	n	1	0        	 	0.0	0	99.7869992000051	99.8869931001682	0.0999939001630992
120136	100	211	stimuli/plant/cactus/plant_cactus03.jpg          	1	3	1	plant_cactus03.jpg   	plant    	6	cactus    	4	cactus03    	42	alive    	1	still	0	natural 	1	n	0	0        	 	0.0	0	99.937005000189	100.036994800204	0.0999898000154644
120286	100	212	stimuli/animals2/tiger/animal_tiger01.jpg        	1	3	1	animal_tiger01.jpg   	animals2 	1	tiger     	33	tiger01     	330	alive    	1	moves	1	natural 	1	n	0	0        	 	0.0	0	100.087005400099	100.186999300029	0.0999938999302685
120436	100	213	stimuli/nonmovNat/shell/nmn_shell04.jpg          	1	3	1	nmn_shell04.jpg      	nonmovNat	5	shell     	32	shell04     	323	not_alive	0	still	0	natural 	1	n	0	1        	f	0.44211670011282	1	100.23701170017	100.337021100102	0.100009399931878
120586	100	214	stimuli/plant2/moss/plant_moss08.jpg             	1	3	1	plant_moss08.jpg     	plant2   	7	moss      	25	moss08      	257	alive    	1	still	0	natural 	1	n	0	0        	 	0.0	0	100.387015399989	100.487005900126	0.0999905001372099
120736	100	215	stimuli/plant2/fern/plant_fern03.jpg             	1	3	1	plant_fern03.jpg     	plant2   	7	fern      	14	fern03      	142	alive    	1	still	0	natural 	1	n	0	0        	 	0.0	0	100.537018100033	100.637011800194	0.0999937001615763
120886	100	216	stimuli/movNat/hotspring/mn_hotspring06.jpg      	1	3	1	mn_hotspring06.jpg   	movNat   	3	hotspring 	21	hotspring06 	215	not_alive	0	moves	1	natural 	1	n	0	0        	 	0.0	0	100.687021600083	100.787013099995	0.0999914999119937
121036	100	217	stimuli/movNat/waves/mn_waves02.jpg              	1	3	1	mn_waves02.jpg       	movNat   	3	waves     	38	waves02     	381	not_alive	0	moves	1	natural 	1	n	0	0        	 	0.0	0	100.837026700145	100.937021400081	0.0999946999363601
121186	100	218	stimuli/nonmovNat/rock/nmn_rock05.jpg            	1	3	1	nmn_rock05.jpg       	nonmovNat	5	rock      	30	rock05      	304	not_alive	0	still	0	natural 	1	n	0	0        	 	0.0	0	100.987026300048	101.087021300104	0.0999950000550598
121336	100	219	stimuli/nonmovArt/lock/nma_lock02.jpg            	1	3	1	nma_lock02.jpg       	nonmovArt	4	lock      	24	lock02      	241	not_alive	0	still	0	artefact	0	n	0	0        	 	0.0	0	101.137032800121	101.237045700196	0.100012900074944
121486	100	220	stimuli/animals2/tiger/animal_tiger03.jpg        	1	3	1	animal_tiger03.jpg   	animals2 	1	tiger     	33	tiger03     	332	alive    	1	moves	1	natural 	1	n	0	0        	 	0.0	0	101.287054100074	101.387028900208	0.0999748001340777
121636	100	221	stimuli/movArt/car/ma_car06.jpg                  	1	3	1	ma_car06.jpg         	movArt   	2	car       	5	car06       	55	not_alive	0	moves	1	artefact	0	n	0	0        	 	0.0	0	101.437056600116	101.537032800028	0.0999761999119073
121786	100	222	stimuli/nonmovNat/crystal/nmn_crystal03.jpg      	1	3	1	nmn_crystal03.jpg    	nonmovNat	5	crystal   	10	crystal03   	102	not_alive	0	still	0	natural 	1	n	0	0        	 	0.0	0	101.587043700041	101.687039500102	0.0999958000611514
121936	100	223	stimuli/nonmovArt/mug/nma_mug06.jpg              	1	3	1	nma_mug06.jpg        	nonmovArt	4	mug       	26	mug06       	265	not_alive	0	still	0	artefact	0	n	0	0        	 	0.0	0	101.737058200175	101.837039800128	0.0999815999530256
122086	100	224	stimuli/plant2/lemontree/plant_lemontree01.jpg   	1	3	1	plant_lemontree01.jpg	plant2   	7	lemontree 	22	lemontree01 	220	alive    	1	still	0	natural 	1	n	0	0        	 	0.0	0	101.887051100144	101.987043400062	0.0999922999180853
122236	100	225	stimuli/animals/horse/animal_horse06.jpg         	1	3	1	animal_horse06.jpg   	animals  	0	horse     	20	horse06     	205	alive    	1	moves	1	natural 	1	n	0	0        	 	0.0	0	102.037054500077	102.137050000019	0.0999954999424517
122386	100	226	stimuli/plant/flower/plant_flower01.jpg          	1	3	1	plant_flower01.jpg   	plant    	6	flower    	16	flower01    	160	alive    	1	still	0	natural 	1	n	0	0        	 	0.0	0	102.187060400145	102.28705280018	0.0999924000352621
122536	100	227	stimuli/movArt/helicopter/ma_helicopter09.jpg    	1	3	1	ma_helicopter09.jpg  	movArt   	2	helicopter	19	helicopter09	198	not_alive	0	moves	1	artefact	0	n	0	0        	 	0.0	0	102.337062400067	102.437054800102	0.0999924000352621
122686	100	228	stimuli/animals/dolphin/animal_dolphin09.jpg     	1	3	1	animal_dolphin09.jpg 	animals  	0	dolphin   	12	dolphin09   	128	alive    	1	moves	1	natural 	1	n	0	0        	 	0.0	0	102.487066700123	102.587060000049	0.0999932999256998
122836	100	229	stimuli/movArt/boat/ma_boat06.jpg                	1	3	1	ma_boat06.jpg        	movArt   	2	boat      	2	boat06      	25	not_alive	0	moves	1	artefact	0	n	0	0        	 	0.0	0	102.637070800178	102.737063800218	0.0999930000398308
122986	100	230	stimuli/plant/tree/plant_tree08.jpg              	1	3	1	plant_tree08.jpg     	plant    	6	tree      	35	tree08      	357	alive    	1	still	0	natural 	1	n	0	0        	 	0.0	0	102.787074699998	102.887068500044	0.0999938000459224
123136	100	231	stimuli/movArt/helicopter/ma_helicopter01.jpg    	1	3	1	ma_helicopter01.jpg  	movArt   	2	helicopter	19	helicopter01	190	not_alive	0	moves	1	artefact	0	n	0	0        	 	0.0	0	102.937077900162	103.037087000208	0.100009100046009
123286	100	232	stimuli/movNat/waterfall/mn_waterfall07.jpg      	1	3	1	mn_waterfall07.jpg   	movNat   	3	waterfall 	37	waterfall07 	376	not_alive	0	moves	1	natural 	1	n	0	0        	 	0.0	0	103.087080800207	103.187075900147	0.0999950999394059
123436	100	233	stimuli/plant2/clover/plant_clover06.jpg         	1	3	1	plant_clover06.jpg   	plant2   	7	clover    	9	clover06    	95	alive    	1	still	0	natural 	1	n	0	0        	 	0.0	0	103.237085500034	103.33707670006	0.0999912000261247
123586	100	234	stimuli/nonmovNat/shell/nmn_shell08.jpg          	1	3	1	nmn_shell08.jpg      	nonmovNat	5	shell     	32	shell08     	327	not_alive	0	still	0	natural 	1	n	0	0        	 	0.0	0	103.387090000091	103.48708160012	0.0999916000291705
123736	100	235	stimuli/plant/cactus/plant_cactus05.jpg          	1	3	1	plant_cactus05.jpg   	plant    	6	cactus    	4	cactus05    	44	alive    	1	still	0	natural 	1	n	0	0        	 	0.0	0	103.537091500126	103.637084400048	0.099992899922654
123886	100	236	stimuli/plant2/moss/plant_moss01.jpg             	1	3	1	plant_moss01.jpg     	plant2   	7	moss      	25	moss01      	250	alive    	1	still	0	natural 	1	n	0	0        	 	0.0	0	103.687111200066	103.787088500103	0.0999773000366986
124036	100	237	stimuli/animals2/lemur/animal_lemur04.jpg        	1	3	1	animal_lemur04.jpg   	animals2 	1	lemur     	23	lemur04     	233	alive    	1	moves	1	natural 	1	n	0	0        	 	0.0	0	103.837099200115	103.937091800151	0.099992600036785
124186	100	238	stimuli/animals/horse/animal_horse05.jpg         	1	3	1	animal_horse05.jpg   	animals  	0	horse     	20	horse05     	204	alive    	1	moves	1	natural 	1	n	0	0        	 	0.0	0	103.987101200037	104.08709460008	0.0999934000428766
124336	100	239	stimuli/nonmovNat/crystal/nmn_crystal04.jpg      	1	3	1	nmn_crystal04.jpg    	nonmovNat	5	crystal   	10	crystal04   	103	not_alive	0	still	0	natural 	1	n	0	0        	 	0.0	0	104.1371065001	104.237098300131	0.0999918000306934
129253	100	240	stimuli/plant/cactus/plant_cactus10.jpg          	1	4	1	plant_cactus10.jpg   	plant    	6	cactus    	4	cactus10    	49	alive    	1	still	0	natural 	1	n	0	0        	 	0.0	0	109.05389820016	109.153889300069	0.0999910999089479
129403	100	241	stimuli/nonmovNat/sand/nmn_sand05.jpg            	1	4	1	nmn_sand05.jpg       	nonmovNat	5	sand      	31	sand05      	314	not_alive	0	still	0	natural 	1	n	0	0        	 	0.0	0	109.203898200067	109.303892700002	0.0999944999348372
129553	100	242	stimuli/animals2/tiger/animal_tiger09.jpg        	1	4	1	animal_tiger09.jpg   	animals2 	1	tiger     	33	tiger09     	338	alive    	1	moves	1	natural 	1	n	0	0        	 	0.0	0	109.353901500115	109.453896600055	0.0999950999394059
129703	100	243	stimuli/animals/cat/animal_cat09.jpg             	1	4	1	animal_cat09.jpg     	animals  	0	cat       	6	cat09       	68	alive    	1	moves	1	natural 	1	n	0	0        	 	0.0	0	109.503913199995	109.603911700193	0.0999985001981258
129853	100	244	stimuli/nonmovNat/sand/nmn_sand01.jpg            	1	4	1	nmn_sand01.jpg       	nonmovNat	5	sand      	31	sand01      	310	not_alive	0	still	0	natural 	1	n	0	0        	 	0.0	0	109.6539109	109.753926900215	0.100016000214964
130003	100	245	stimuli/nonmovArt/clothespeg/nma_clothespeg08.jpg	1	4	1	nma_clothespeg08.jpg 	nonmovArt	4	clothespeg	8	clothespeg08	87	not_alive	0	still	0	artefact	0	n	0	0        	 	0.0	0	109.803912600037	109.903905100189	0.0999925001524389
130153	100	246	stimuli/animals2/lemur/animal_lemur04.jpg        	1	4	1	animal_lemur04.jpg   	animals2 	1	lemur     	23	lemur04     	233	alive    	1	moves	1	natural 	1	n	0	0        	 	0.0	0	109.953916100087	110.053932700073	0.100016599986702
130303	100	247	stimuli/plant2/fern/plant_fern02.jpg             	1	4	1	plant_fern02.jpg     	plant2   	7	fern      	14	fern02      	141	alive    	1	still	0	natural 	1	n	0	0        	 	0.0	0	110.103935100138	110.20391390007	0.099978799931705
130453	100	248	stimuli/movNat/river/mn_river05.jpg              	1	4	1	mn_river05.jpg       	movNat   	3	river     	29	river05     	294	not_alive	0	moves	1	natural 	1	n	0	0        	 	0.0	0	110.253927100217	110.353924200172	0.0999970999546349
130603	100	249	stimuli/animals/dolphin/animal_dolphin05.jpg     	1	4	1	animal_dolphin05.jpg 	animals  	0	dolphin   	12	dolphin05   	124	alive    	1	moves	1	natural 	1	n	0	0        	 	0.0	0	110.403925599996	110.503943300107	0.100017700111493
130753	100	250	stimuli/animals2/lemur/animal_lemur06.jpg        	1	4	1	animal_lemur06.jpg   	animals2 	1	lemur     	23	lemur06     	235	alive    	1	moves	1	natural 	1	n	0	0        	 	0.0	0	110.553932200186	110.653925799998	0.0999935998115689
130903	100	251	stimuli/movArt/train/ma_train09.jpg              	1	4	1	ma_train09.jpg       	movArt   	2	train     	34	train09     	348	not_alive	0	moves	1	artefact	0	n	0	0        	 	0.0	0	110.703933800105	110.80392830004	0.0999944999348372
131053	100	252	stimuli/nonmovNat/sand/nmn_sand07.jpg            	1	4	1	nmn_sand07.jpg       	nonmovNat	5	sand      	31	sand07      	316	not_alive	0	still	0	natural 	1	n	0	0        	 	0.0	0	110.853965200018	110.953931000084	0.0999658000655472
131203	100	253	stimuli/nonmovNat/shell/nmn_shell05.jpg          	1	4	1	nmn_shell05.jpg      	nonmovNat	5	shell     	32	shell05     	324	not_alive	0	still	0	natural 	1	n	0	0        	 	0.0	0	111.003942999989	111.103947600117	0.100004600128159
131353	100	254	stimuli/nonmovNat/rock/nmn_rock02.jpg            	1	4	1	nmn_rock02.jpg       	nonmovNat	5	rock      	30	rock02      	301	not_alive	0	still	0	natural 	1	n	0	0        	 	0.0	0	111.153947800165	111.253938200185	0.0999904000200331
131503	100	255	stimuli/movArt/train/ma_train01.jpg              	1	4	1	ma_train01.jpg       	movArt   	2	train     	34	train01     	340	not_alive	0	moves	1	artefact	0	n	0	0        	 	0.0	0	111.303951100213	111.40394270001	0.0999915997963399
131653	100	256	stimuli/movArt/helicopter/ma_helicopter08.jpg    	1	4	1	ma_helicopter08.jpg  	movArt   	2	helicopter	19	helicopter08	197	not_alive	0	moves	1	artefact	0	n	0	0        	 	0.0	0	111.453972800169	111.553946100175	0.0999733000062406
131803	100	257	stimuli/plant/cactus/plant_cactus06.jpg          	1	4	1	plant_cactus06.jpg   	plant    	6	cactus    	4	cactus06    	45	alive    	1	still	0	natural 	1	n	0	0        	 	0.0	0	111.603984300047	111.703949999996	0.0999656999483705
131953	100	258	stimuli/plant/grass/plant_grass02.jpg            	1	4	1	plant_grass02.jpg    	plant    	6	grass     	17	grass02     	171	alive    	1	still	0	natural 	1	n	0	0        	 	0.0	0	111.753960900009	111.853967600036	0.100006700027734
132103	100	259	stimuli/movArt/boat/ma_boat03.jpg                	1	4	1	ma_boat03.jpg        	movArt   	2	boat      	2	boat03      	22	not_alive	0	moves	1	artefact	0	n	0	0        	 	0.0	0	111.903963600053	112.003957500216	0.0999939001630992
132253	100	260	stimuli/movNat/waves/mn_waves03.jpg              	1	4	1	mn_waves03.jpg       	movNat   	3	waves     	38	waves03     	382	not_alive	0	moves	1	natural 	1	n	0	0        	 	0.0	0	112.053968700115	112.153977200156	0.10000850004144
132403	100	261	stimuli/plant2/moss/plant_moss10.jpg             	1	4	1	plant_moss10.jpg     	plant2   	7	moss      	25	moss10      	259	alive    	1	still	0	natural 	1	n	0	0        	 	0.0	0	112.203978800215	112.303978900192	0.100000099977478
132553	100	262	stimuli/nonmovArt/lock/nma_lock08.jpg            	1	4	1	nma_lock08.jpg       	nonmovArt	4	lock      	24	lock08      	247	not_alive	0	still	0	artefact	0	n	0	0        	 	0.0	0	112.353990500094	112.453968600137	0.0999781000427902
132703	100	263	stimuli/movNat/waterfall/mn_waterfall06.jpg      	1	4	1	mn_waterfall06.jpg   	movNat   	3	waterfall 	37	waterfall06 	375	not_alive	0	moves	1	natural 	1	n	0	0        	 	0.0	0	112.503980000038	112.603970900178	0.0999909001402557
132853	100	264	stimuli/movArt/car/ma_car01.jpg                  	1	4	1	ma_car01.jpg         	movArt   	2	car       	5	car01       	50	not_alive	0	moves	1	artefact	0	n	0	0        	 	0.0	0	112.653982300079	112.753974100109	0.0999918000306934
133003	100	265	stimuli/nonmovArt/lock/nma_lock10.jpg            	1	4	1	nma_lock10.jpg       	nonmovArt	4	lock      	24	lock10      	249	not_alive	0	still	0	artefact	0	n	0	0        	 	0.0	0	112.804000700125	112.903979300056	0.0999785999301821
133153	100	266	stimuli/animals/eagle/animal_eagle10.jpg         	1	4	1	animal_eagle10.jpg   	animals  	0	eagle     	13	eagle10     	139	alive    	1	moves	1	natural 	1	n	0	0        	 	0.0	0	112.953991500195	113.054001800017	0.100010299822316
133303	100	267	stimuli/plant2/palmtree/plant_palmtree08.jpg     	1	4	1	plant_palmtree08.jpg 	plant2   	7	palmtree  	27	palmtree08  	277	alive    	1	still	0	natural 	1	n	0	0        	 	0.0	0	113.103994100122	113.20398690016	0.0999928000383079
133453	100	268	stimuli/plant/flower/plant_flower06.jpg          	1	4	1	plant_flower06.jpg   	plant    	6	flower    	16	flower06    	165	alive    	1	still	0	natural 	1	n	0	0        	 	0.0	0	113.253996600164	113.353989700088	0.0999930999241769
133603	100	269	stimuli/plant2/palmtree/plant_palmtree01.jpg     	1	4	1	plant_palmtree01.jpg 	plant2   	7	palmtree  	27	palmtree01  	270	alive    	1	still	0	natural 	1	n	0	0        	 	0.0	0	113.404001099989	113.503997600172	0.0999965001828968
133753	100	270	stimuli/nonmovNat/crystal/nmn_crystal08.jpg      	1	4	1	nmn_crystal08.jpg    	nonmovNat	5	crystal   	10	crystal08   	107	not_alive	0	still	0	natural 	1	n	0	0        	 	0.0	0	113.554021500051	113.653997200076	0.0999757000245154
133903	100	271	stimuli/nonmovArt/lock/nma_lock02.jpg            	1	4	1	nma_lock02.jpg       	nonmovArt	4	lock      	24	lock02      	241	not_alive	0	still	0	artefact	0	n	0	0        	 	0.0	0	113.704018700169	113.804003700148	0.0999849999789149
134053	100	272	stimuli/plant/tree/plant_tree02.jpg              	1	4	1	plant_tree02.jpg     	plant    	6	tree      	35	tree02      	351	alive    	1	still	0	natural 	1	n	0	0        	 	0.0	0	113.854012000142	113.954005500069	0.0999934999272227
134203	100	273	stimuli/movNat/fire/mn_fire02.jpg                	1	4	1	mn_fire02.jpg        	movNat   	3	fire      	15	fire02      	151	not_alive	0	moves	1	natural 	1	n	0	0        	 	0.0	0	114.00401480007	114.104009600123	0.0999948000535369
134353	100	274	stimuli/nonmovArt/headphones/nma_headphones03.jpg	1	4	1	nma_headphones03.jpg 	nonmovArt	4	headphones	18	headphones03	182	not_alive	0	still	0	artefact	0	n	0	0        	 	0.0	0	114.154019400012	114.25401530019	0.0999959001783282
134503	100	275	stimuli/movNat/waves/mn_waves08.jpg              	1	4	1	mn_waves08.jpg       	movNat   	3	waves     	38	waves08     	387	not_alive	0	moves	1	natural 	1	n	0	0        	 	0.0	0	114.304022600176	114.404016100103	0.0999934999272227
134653	100	276	stimuli/nonmovArt/clothespeg/nma_clothespeg07.jpg	1	4	1	nma_clothespeg07.jpg 	nonmovArt	4	clothespeg	8	clothespeg07	86	not_alive	0	still	0	artefact	0	n	0	0        	 	0.0	0	114.45402880013	114.554057300091	0.100028499960899
134803	100	277	stimuli/plant2/lemontree/plant_lemontree02.jpg   	1	4	1	plant_lemontree02.jpg	plant2   	7	lemontree 	22	lemontree02 	221	alive    	1	still	0	natural 	1	n	0	0        	 	0.0	0	114.604031500174	114.704023000086	0.0999914999119937
134953	100	278	stimuli/movArt/car/ma_car08.jpg                  	1	4	1	ma_car08.jpg         	movArt   	2	car       	5	car08       	57	not_alive	0	moves	1	artefact	0	n	0	0        	 	0.0	0	114.754033600213	114.854028800037	0.099995199823752
135103	100	279	stimuli/nonmovArt/clothespeg/nma_clothespeg02.jpg	1	4	1	nma_clothespeg02.jpg 	nonmovArt	4	clothespeg	8	clothespeg02	81	not_alive	0	still	0	artefact	0	n	0	0        	 	0.0	0	114.90405500005	115.004033900099	0.0999789000488818
135253	100	280	stimuli/plant2/clover/plant_clover07.jpg         	1	4	1	plant_clover07.jpg   	plant2   	7	clover    	9	clover07    	96	alive    	1	still	0	natural 	1	n	0	0        	 	0.0	0	115.0540432001	115.154035000131	0.0999918000306934
135403	100	281	stimuli/movNat/waterfall/mn_waterfall02.jpg      	1	4	1	mn_waterfall02.jpg   	movNat   	3	waterfall 	37	waterfall02 	371	not_alive	0	moves	1	natural 	1	n	0	0        	 	0.0	0	115.204046600033	115.304065700155	0.100019100122154
135553	100	282	stimuli/animals2/pigeon/animal_pigeon03.jpg      	1	4	1	animal_pigeon03.jpg  	animals2 	1	pigeon    	28	pigeon03    	282	alive    	1	moves	1	natural 	1	n	0	0        	 	0.0	0	115.354051000206	115.454044800019	0.0999937998130918
135703	100	283	stimuli/nonmovNat/cliff/nmn_cliff06.jpg          	1	4	1	nmn_cliff06.jpg      	nonmovNat	5	cliff     	7	cliff06     	75	not_alive	0	still	0	natural 	1	n	0	0        	 	0.0	0	115.504058300052	115.604046800174	0.0999885001219809
135853	100	284	stimuli/animals2/bee/animal_bee05.jpg            	1	4	1	animal_bee05.jpg     	animals2 	1	bee       	0	bee05       	4	alive    	1	moves	1	natural 	1	n	0	0        	 	0.0	0	115.654072800186	115.754048800096	0.0999759999103844
136003	100	285	stimuli/nonmovNat/shell/nmn_shell05.jpg          	1	4	1	nmn_shell05.jpg      	nonmovNat	5	shell     	32	shell05     	324	not_alive	0	still	0	natural 	1	n	0	0        	 	0.0	0	115.804062700132	115.904068100033	0.10000539990142
136153	100	286	stimuli/movNat/fire/mn_fire04.jpg                	1	4	1	mn_fire04.jpg        	movNat   	3	fire      	15	fire04      	153	not_alive	0	moves	1	natural 	1	n	0	0        	 	0.0	0	115.954063200159	116.054069900187	0.100006700027734
136303	100	287	stimuli/movArt/bus/ma_bus06.jpg                  	1	4	1	ma_bus06.jpg         	movArt   	2	bus       	3	bus06       	35	not_alive	0	moves	1	artefact	0	n	0	0        	 	0.0	0	116.104068699991	116.204062500037	0.0999938000459224
136453	100	288	stimuli/movNat/fire/mn_fire06.jpg                	1	4	1	mn_fire06.jpg        	movNat   	3	fire      	15	fire06      	155	not_alive	0	moves	1	natural 	1	n	0	0        	 	0.0	0	116.254071200034	116.354066000087	0.0999948000535369
136603	100	289	stimuli/nonmovArt/mug/nma_mug08.jpg              	1	4	1	nma_mug08.jpg        	nonmovArt	4	mug       	26	mug08       	267	not_alive	0	still	0	artefact	0	n	0	0        	 	0.0	0	116.404096800135	116.504070700146	0.0999739000108093
136753	100	290	stimuli/plant2/palmtree/plant_palmtree08.jpg     	1	4	1	plant_palmtree08.jpg 	plant2   	7	palmtree  	27	palmtree08  	277	alive    	1	still	0	natural 	1	n	0	0        	 	0.0	0	116.554078200134	116.654075800208	0.0999976000748575
136903	100	291	stimuli/nonmovArt/headphones/nma_headphones01.jpg	1	4	1	nma_headphones01.jpg 	nonmovArt	4	headphones	18	headphones01	180	not_alive	0	still	0	artefact	0	n	0	0        	 	0.0	0	116.70408340008	116.804088800214	0.100005400134251
137053	100	292	stimuli/nonmovArt/bench/nma_bench05.jpg          	1	4	1	nma_bench05.jpg      	nonmovArt	4	bench     	1	bench05     	14	not_alive	0	still	0	artefact	0	n	0	0        	 	0.0	0	116.854086700128	116.954092400149	0.10000570002012
137203	100	293	stimuli/animals/cat/animal_cat01.jpg             	1	4	1	animal_cat01.jpg     	animals  	0	cat       	6	cat01       	60	alive    	1	moves	1	natural 	1	n	1	0        	 	0.0	0	117.004089800175	117.104082100093	0.0999922999180853
137353	100	294	stimuli/animals2/whale/animal_whale02.jpg        	1	4	1	animal_whale02.jpg   	animals2 	1	whale     	39	whale02     	391	alive    	1	moves	1	natural 	1	n	0	0        	 	0.0	0	117.154122100212	117.25408380013	0.0999616999179125
137503	100	295	stimuli/movArt/bus/ma_bus10.jpg                  	1	4	1	ma_bus10.jpg         	movArt   	2	bus       	3	bus10       	39	not_alive	0	moves	1	artefact	0	n	0	1        	f	0.391975899925455	1	117.304096700158	117.404092699988	0.0999959998298436
137653	100	296	stimuli/plant2/moss/plant_moss08.jpg             	1	4	1	plant_moss08.jpg     	plant2   	7	moss      	25	moss08      	257	alive    	1	still	0	natural 	1	n	0	0        	 	0.0	0	117.454102599993	117.554099700181	0.0999971001874656
137803	100	297	stimuli/plant2/clover/plant_clover04.jpg         	1	4	1	plant_clover04.jpg   	plant2   	7	clover    	9	clover04    	93	alive    	1	still	0	natural 	1	n	0	0        	 	0.0	0	117.604106300045	117.704098800197	0.0999925001524389
137953	100	298	stimuli/nonmovNat/cliff/nmn_cliff05.jpg          	1	4	1	nmn_cliff05.jpg      	nonmovNat	5	cliff     	7	cliff05     	74	not_alive	0	still	0	natural 	1	n	1	0        	 	0.0	0	117.754126799991	117.854102500016	0.0999757000245154
138103	100	299	stimuli/plant/cactus/plant_cactus04.jpg          	1	4	1	plant_cactus04.jpg   	plant    	6	cactus    	4	cactus04    	43	alive    	1	still	0	natural 	1	n	0	0        	 	0.0	0	117.904125900008	118.004104400054	0.099978500045836
138253	100	300	stimuli/plant2/lemontree/plant_lemontree03.jpg   	1	4	1	plant_lemontree03.jpg	plant2   	7	lemontree 	22	lemontree03 	222	alive    	1	still	0	natural 	1	n	0	0        	 	0.0	0	118.054115900071	118.154111400014	0.0999954999424517
138403	100	301	stimuli/nonmovArt/mug/nma_mug08.jpg              	1	4	1	nma_mug08.jpg        	nonmovArt	4	mug       	26	mug08       	267	not_alive	0	still	0	artefact	0	n	0	1        	f	0.541963100200519	1	118.204118600115	118.304113900056	0.0999952999409288
138553	100	302	stimuli/nonmovArt/headphones/nma_headphones01.jpg	1	4	1	nma_headphones01.jpg 	nonmovArt	4	headphones	18	headphones01	180	not_alive	0	still	0	artefact	0	n	0	0        	 	0.0	0	118.354122800054	118.454118400114	0.0999956000596285
138703	100	303	stimuli/movArt/bus/ma_bus10.jpg                  	1	4	1	ma_bus10.jpg         	movArt   	2	bus       	3	bus10       	39	not_alive	0	moves	1	artefact	0	n	0	0        	 	0.0	0	118.504136800067	118.604119100142	0.099982300074771
138853	100	304	stimuli/animals/horse/animal_horse08.jpg         	1	4	1	animal_horse08.jpg   	animals  	0	horse     	20	horse08     	207	alive    	1	moves	1	natural 	1	n	0	0        	 	0.0	0	118.654132000171	118.754122700077	0.0999906999059022
139003	100	305	stimuli/movArt/boat/ma_boat04.jpg                	1	4	1	ma_boat04.jpg        	movArt   	2	boat      	2	boat04      	23	not_alive	0	moves	1	artefact	0	n	0	0        	 	0.0	0	118.804150599986	118.90412660013	0.0999760001432151
139153	100	306	stimuli/movArt/helicopter/ma_helicopter01.jpg    	1	4	1	ma_helicopter01.jpg  	movArt   	2	helicopter	19	helicopter01	190	not_alive	0	moves	1	artefact	0	n	0	0        	 	0.0	0	118.954138800036	119.054132200079	0.0999934000428766
139303	100	307	stimuli/plant2/fern/plant_fern08.jpg             	1	4	1	plant_fern08.jpg     	plant2   	7	fern      	14	fern08      	147	alive    	1	still	0	natural 	1	n	0	0        	 	0.0	0	119.104141100077	119.204135500127	0.0999944000504911
139453	100	308	stimuli/nonmovArt/bench/nma_bench05.jpg          	1	4	1	nma_bench05.jpg      	nonmovArt	4	bench     	1	bench05     	14	not_alive	0	still	0	artefact	0	n	0	0        	 	0.0	0	119.254146600142	119.354138600174	0.0999920000322163
139603	100	309	stimuli/plant2/lemontree/plant_lemontree06.jpg   	1	4	1	plant_lemontree06.jpg	plant2   	7	lemontree 	22	lemontree06 	225	alive    	1	still	0	natural 	1	n	0	0        	 	0.0	0	119.404148200061	119.50415110006	0.100002899998799
139753	100	310	stimuli/movNat/hotspring/mn_hotspring09.jpg      	1	4	1	mn_hotspring09.jpg   	movNat   	3	hotspring 	21	hotspring09 	218	not_alive	0	moves	1	natural 	1	n	0	0        	 	0.0	0	119.554153000005	119.654146800051	0.0999938000459224
139903	100	311	stimuli/movArt/boat/ma_boat05.jpg                	1	4	1	ma_boat05.jpg        	movArt   	2	boat      	2	boat05      	24	not_alive	0	moves	1	artefact	0	n	0	0        	 	0.0	0	119.704155700048	119.804149700096	0.0999940000474453
140053	100	312	stimuli/animals2/tiger/animal_tiger10.jpg        	1	4	1	animal_tiger10.jpg   	animals2 	1	tiger     	33	tiger10     	339	alive    	1	moves	1	natural 	1	n	0	0        	 	0.0	0	119.854159200098	119.95415330003	0.0999940999317914
140203	100	313	stimuli/nonmovArt/bench/nma_bench08.jpg          	1	4	1	nma_bench08.jpg      	nonmovArt	4	bench     	1	bench08     	17	not_alive	0	still	0	artefact	0	n	0	0        	 	0.0	0	120.004164000042	120.104165400146	0.100001400103793
140353	100	314	stimuli/nonmovNat/rock/nmn_rock10.jpg            	1	4	1	nmn_rock10.jpg       	nonmovNat	5	rock      	30	rock10      	309	not_alive	0	still	0	natural 	1	n	0	0        	 	0.0	0	120.154183600098	120.254182700068	0.0999990999698639
140503	100	315	stimuli/animals2/bee/animal_bee02.jpg            	1	4	1	animal_bee02.jpg     	animals2 	1	bee       	0	bee02       	1	alive    	1	moves	1	natural 	1	n	0	0        	 	0.0	0	120.304171200143	120.404166700086	0.0999954999424517
140653	100	316	stimuli/movNat/hotspring/mn_hotspring06.jpg      	1	4	1	mn_hotspring06.jpg   	movNat   	3	hotspring 	21	hotspring06 	215	not_alive	0	moves	1	natural 	1	n	0	0        	 	0.0	0	120.454190700082	120.5541677	0.0999769999179989
140803	100	317	stimuli/animals/dog/animal_dog10.jpg             	1	4	1	animal_dog10.jpg     	animals  	0	dog       	11	dog10       	119	alive    	1	moves	1	natural 	1	n	0	0        	 	0.0	0	120.604178100126	120.704171800055	0.0999936999287456
140953	100	318	stimuli/animals/horse/animal_horse06.jpg         	1	4	1	animal_horse06.jpg   	animals  	0	horse     	20	horse06     	205	alive    	1	moves	1	natural 	1	n	0	0        	 	0.0	0	120.754183600191	120.854219600093	0.100035999901593
141103	100	319	stimuli/animals2/pigeon/animal_pigeon08.jpg      	1	4	1	animal_pigeon08.jpg  	animals2 	1	pigeon    	28	pigeon08    	287	alive    	1	moves	1	natural 	1	n	0	0        	 	0.0	0	120.904186000116	121.00417910004	0.0999930999241769
144786	100	320	stimuli/plant/vine/plant_vine01.jpg              	1	5	1	plant_vine01.jpg     	plant    	6	vine      	36	vine01      	360	alive    	1	still	0	natural 	1	n	0	0        	 	0.0	0	124.587620000122	124.687610300025	0.0999902999028564
144936	100	321	stimuli/nonmovNat/crystal/nmn_crystal08.jpg      	1	5	1	nmn_crystal08.jpg    	nonmovNat	5	crystal   	10	crystal08   	107	not_alive	0	still	0	natural 	1	n	0	0        	 	0.0	0	124.737619800027	124.837616900215	0.0999971001874656
145086	100	322	stimuli/movNat/river/mn_river09.jpg              	1	5	1	mn_river09.jpg       	movNat   	3	river     	29	river09     	298	not_alive	0	moves	1	natural 	1	n	0	0        	 	0.0	0	124.887622900074	124.987613300094	0.0999904000200331
145236	100	323	stimuli/nonmovNat/crystal/nmn_crystal03.jpg      	1	5	1	nmn_crystal03.jpg    	nonmovNat	5	crystal   	10	crystal03   	102	not_alive	0	still	0	natural 	1	n	0	0        	 	0.0	0	125.037626300007	125.137621900067	0.0999956000596285
145386	100	324	stimuli/nonmovArt/mug/nma_mug07.jpg              	1	5	1	nma_mug07.jpg        	nonmovArt	4	mug       	26	mug07       	266	not_alive	0	still	0	artefact	0	n	0	0        	 	0.0	0	125.187629700173	125.287624600111	0.099994899937883
145536	100	325	stimuli/plant/grass/plant_grass06.jpg            	1	5	1	plant_grass06.jpg    	plant    	6	grass     	17	grass06     	175	alive    	1	still	0	natural 	1	n	0	0        	 	0.0	0	125.337632200215	125.437643800164	0.10001159994863
145686	100	326	stimuli/plant2/moss/plant_moss04.jpg             	1	5	1	plant_moss04.jpg     	plant2   	7	moss      	25	moss04      	253	alive    	1	still	0	natural 	1	n	0	0        	 	0.0	0	125.487638200168	125.587671000045	0.100032799877226
145836	100	327	stimuli/movArt/car/ma_car02.jpg                  	1	5	1	ma_car02.jpg         	movArt   	2	car       	5	car02       	51	not_alive	0	moves	1	artefact	0	n	0	0        	 	0.0	0	125.637640400091	125.737633000128	0.099992600036785
145986	100	328	stimuli/plant/tree/plant_tree01.jpg              	1	5	1	plant_tree01.jpg     	plant    	6	tree      	35	tree01      	350	alive    	1	still	0	natural 	1	n	0	0        	 	0.0	0	125.78764460003	125.887647400144	0.100002800114453
146136	100	329	stimuli/movNat/hotspring/mn_hotspring10.jpg      	1	5	1	mn_hotspring10.jpg   	movNat   	3	hotspring 	21	hotspring10 	219	not_alive	0	moves	1	natural 	1	n	0	0        	 	0.0	0	125.937648500083	126.0376406	0.0999920999165624
146286	100	330	stimuli/plant/tree/plant_tree08.jpg              	1	5	1	plant_tree08.jpg     	plant    	6	tree      	35	tree08      	357	alive    	1	still	0	natural 	1	n	0	0        	 	0.0	0	126.08765510004	126.187666499987	0.100011399947107
146436	100	331	stimuli/animals2/whale/animal_whale02.jpg        	1	5	1	animal_whale02.jpg   	animals2 	1	whale     	39	whale02     	391	alive    	1	moves	1	natural 	1	n	0	0        	 	0.0	0	126.237654700177	126.337662400212	0.100007700035349
146586	100	332	stimuli/plant/flower/plant_flower04.jpg          	1	5	1	plant_flower04.jpg   	plant    	6	flower    	16	flower04    	163	alive    	1	still	0	natural 	1	n	0	0        	 	0.0	0	126.387661000015	126.487662200117	0.10000120010227
146736	100	333	stimuli/plant/vine/plant_vine03.jpg              	1	5	1	plant_vine03.jpg     	plant    	6	vine      	36	vine03      	362	alive    	1	still	0	natural 	1	n	0	0        	 	0.0	0	126.537661900045	126.637657599989	0.0999956999439746
146886	100	334	stimuli/animals/eagle/animal_eagle09.jpg         	1	5	1	animal_eagle09.jpg   	animals  	0	eagle     	13	eagle09     	138	alive    	1	moves	1	natural 	1	n	0	0        	 	0.0	0	126.687699700007	126.787659600144	0.099959900137037
147036	100	335	stimuli/animals2/pigeon/animal_pigeon06.jpg      	1	5	1	animal_pigeon06.jpg  	animals2 	1	pigeon    	28	pigeon06    	285	alive    	1	moves	1	natural 	1	n	0	0        	 	0.0	0	126.83767040004	126.937674300047	0.100003900006413
147186	100	336	stimuli/plant/flower/plant_flower10.jpg          	1	5	1	plant_flower10.jpg   	plant    	6	flower    	16	flower10    	169	alive    	1	still	0	natural 	1	n	0	0        	 	0.0	0	126.987685300177	127.08766900003	0.0999836998526007
147336	100	337	stimuli/movArt/helicopter/ma_helicopter07.jpg    	1	5	1	ma_helicopter07.jpg  	movArt   	2	helicopter	19	helicopter07	196	not_alive	0	moves	1	artefact	0	n	1	0        	 	0.0	0	127.137679700041	127.237670000177	0.099990300135687
147486	100	338	stimuli/animals2/lemur/animal_lemur01.jpg        	1	5	1	animal_lemur01.jpg   	animals2 	1	lemur     	23	lemur01     	230	alive    	1	moves	1	natural 	1	n	0	0        	 	0.0	0	127.287701199995	127.387676100014	0.0999749000184238
147636	100	339	stimuli/animals/horse/animal_horse01.jpg         	1	5	1	animal_horse01.jpg   	animals  	0	horse     	20	horse01     	200	alive    	1	moves	1	natural 	1	n	0	1        	f	0.392017300007865	1	127.437725300202	127.537678800058	0.0999534998554736
147786	100	340	stimuli/nonmovNat/rock/nmn_rock07.jpg            	1	5	1	nmn_rock07.jpg       	nonmovNat	5	rock      	30	rock07      	306	not_alive	0	still	0	natural 	1	n	0	0        	 	0.0	0	127.587689600186	127.687682799995	0.0999931998085231
147936	100	341	stimuli/plant2/fern/plant_fern04.jpg             	1	5	1	plant_fern04.jpg     	plant2   	7	fern      	14	fern04      	143	alive    	1	still	0	natural 	1	n	0	0        	 	0.0	0	127.737694100011	127.837688700063	0.099994600052014
148086	100	342	stimuli/plant2/clover/plant_clover05.jpg         	1	5	1	plant_clover05.jpg   	plant2   	7	clover    	9	clover05    	94	alive    	1	still	0	natural 	1	n	0	0        	 	0.0	0	127.887696500169	127.987687500194	0.0999910000246018
148236	100	343	stimuli/plant/grass/plant_grass04.jpg            	1	5	1	plant_grass04.jpg    	plant    	6	grass     	17	grass04     	173	alive    	1	still	0	natural 	1	n	0	0        	 	0.0	0	128.037716400111	128.137694300152	0.0999779000412673
148386	100	344	stimuli/animals/dolphin/animal_dolphin02.jpg     	1	5	1	animal_dolphin02.jpg 	animals  	0	dolphin   	12	dolphin02   	121	alive    	1	moves	1	natural 	1	n	0	0        	 	0.0	0	128.187716600019	128.287699300097	0.0999827000778168
148536	100	345	stimuli/animals/dog/animal_dog08.jpg             	1	5	1	animal_dog08.jpg     	animals  	0	dog       	11	dog08       	117	alive    	1	moves	1	natural 	1	n	0	0        	 	0.0	0	128.337709200103	128.437705600169	0.0999964000657201
148686	100	346	stimuli/animals2/bee/animal_bee05.jpg            	1	5	1	animal_bee05.jpg     	animals2 	1	bee       	0	bee05       	4	alive    	1	moves	1	natural 	1	n	0	0        	 	0.0	0	128.487710400019	128.587705100188	0.0999947001691908
148836	100	347	stimuli/movArt/train/ma_train08.jpg              	1	5	1	ma_train08.jpg       	movArt   	2	train     	34	train08     	347	not_alive	0	moves	1	artefact	0	n	0	0        	 	0.0	0	128.637715300079	128.737707799999	0.0999924999196082
148986	100	348	stimuli/animals2/tiger/animal_tiger10.jpg        	1	5	1	animal_tiger10.jpg   	animals2 	1	tiger     	33	tiger10     	339	alive    	1	moves	1	natural 	1	n	0	0        	 	0.0	0	128.787725100061	128.887711500051	0.0999863999895752
149136	100	349	stimuli/animals/dolphin/animal_dolphin01.jpg     	1	5	1	animal_dolphin01.jpg 	animals  	0	dolphin   	12	dolphin01   	120	alive    	1	moves	1	natural 	1	n	0	0        	 	0.0	0	128.937726700213	129.0377150001	0.0999882998876274
149287	100	350	stimuli/animals/eagle/animal_eagle07.jpg         	1	5	1	animal_eagle07.jpg   	animals  	0	eagle     	13	eagle07     	136	alive    	1	moves	1	natural 	1	n	1	0        	 	0.0	0	129.087736700196	129.187720000045	0.0999832998495549
149437	100	351	stimuli/animals/cat/animal_cat05.jpg             	1	5	1	animal_cat05.jpg     	animals  	0	cat       	6	cat05       	64	alive    	1	moves	1	natural 	1	n	0	0        	 	0.0	0	129.237730500055	129.337724900106	0.0999944000504911
149587	100	352	stimuli/movNat/waves/mn_waves02.jpg              	1	5	1	mn_waves02.jpg       	movNat   	3	waves     	38	waves02     	381	not_alive	0	moves	1	natural 	1	n	0	1        	f	0.391973499907181	1	129.387734000105	129.487727700034	0.0999936999287456
149737	100	353	stimuli/nonmovNat/shell/nmn_shell02.jpg          	1	5	1	nmn_shell02.jpg      	nonmovNat	5	shell     	32	shell02     	321	not_alive	0	still	0	natural 	1	n	0	0        	 	0.0	0	129.53773760004	129.637746600201	0.100009000161663
149887	100	354	stimuli/plant/vine/plant_vine04.jpg              	1	5	1	plant_vine04.jpg     	plant    	6	vine      	36	vine04      	363	alive    	1	still	0	natural 	1	n	0	0        	 	0.0	0	129.687740700087	129.787733000005	0.0999922999180853
150037	100	355	stimuli/nonmovNat/cliff/nmn_cliff10.jpg          	1	5	1	nmn_cliff10.jpg      	nonmovNat	5	cliff     	7	cliff10     	79	not_alive	0	still	0	natural 	1	n	0	0        	 	0.0	0	129.83774600015	129.937739900081	0.0999938999302685
150187	100	356	stimuli/animals2/whale/animal_whale02.jpg        	1	5	1	animal_whale02.jpg   	animals2 	1	whale     	39	whale02     	391	alive    	1	moves	1	natural 	1	n	0	0        	 	0.0	0	129.987746200059	130.087741000112	0.0999948000535369
150337	100	357	stimuli/movNat/waterfall/mn_waterfall06.jpg      	1	5	1	mn_waterfall06.jpg   	movNat   	3	waterfall 	37	waterfall06 	375	not_alive	0	moves	1	natural 	1	n	0	0        	 	0.0	0	130.137754700147	130.237745400053	0.0999906999059022
150487	100	358	stimuli/animals/dog/animal_dog02.jpg             	1	5	1	animal_dog02.jpg     	animals  	0	dog       	11	dog02       	111	alive    	1	moves	1	natural 	1	n	0	0        	 	0.0	0	130.287754900055	130.387764499988	0.100009599933401
150637	100	359	stimuli/movNat/river/mn_river10.jpg              	1	5	1	mn_river10.jpg       	movNat   	3	river     	29	river10     	299	not_alive	0	moves	1	natural 	1	n	0	0        	 	0.0	0	130.437757400097	130.53775340016	0.0999960000626743
150787	100	360	stimuli/nonmovNat/sand/nmn_sand02.jpg            	1	5	1	nmn_sand02.jpg       	nonmovNat	5	sand      	31	sand02      	311	not_alive	0	still	0	natural 	1	n	0	0        	 	0.0	0	130.587764600059	130.687755800085	0.0999912000261247
150937	100	361	stimuli/animals2/whale/animal_whale07.jpg        	1	5	1	animal_whale07.jpg   	animals2 	1	whale     	39	whale07     	396	alive    	1	moves	1	natural 	1	n	0	0        	 	0.0	0	130.73776779999	130.837760100141	0.099992300150916
151087	100	362	stimuli/nonmovArt/clothespeg/nma_clothespeg05.jpg	1	5	1	nma_clothespeg05.jpg 	nonmovArt	4	clothespeg	8	clothespeg05	84	not_alive	0	still	0	artefact	0	n	0	0        	 	0.0	0	130.887770500034	130.987785200123	0.10001470008865
151237	100	363	stimuli/animals/dolphin/animal_dolphin01.jpg     	1	5	1	animal_dolphin01.jpg 	animals  	0	dolphin   	12	dolphin01   	120	alive    	1	moves	1	natural 	1	n	1	0        	 	0.0	0	131.037775700213	131.137797100004	0.100021399790421
151387	100	364	stimuli/nonmovArt/headphones/nma_headphones07.jpg	1	5	1	nma_headphones07.jpg 	nonmovArt	4	headphones	18	headphones07	186	not_alive	0	still	0	artefact	0	n	0	0        	 	0.0	0	131.187776800012	131.287770200055	0.0999934000428766
151537	100	365	stimuli/plant/tree/plant_tree06.jpg              	1	5	1	plant_tree06.jpg     	plant    	6	tree      	35	tree06      	355	alive    	1	still	0	natural 	1	n	0	0        	 	0.0	0	131.337780300062	131.437774900114	0.099994600052014
151687	100	366	stimuli/animals/horse/animal_horse07.jpg         	1	5	1	animal_horse07.jpg   	animals  	0	horse     	20	horse07     	206	alive    	1	moves	1	natural 	1	n	0	1        	f	0.442150499904528	1	131.487787400139	131.58778270008	0.0999952999409288
151837	100	367	stimuli/nonmovNat/crystal/nmn_crystal01.jpg      	1	5	1	nmn_crystal01.jpg    	nonmovNat	5	crystal   	10	crystal01   	100	not_alive	0	still	0	natural 	1	n	0	0        	 	0.0	0	131.637788400054	131.737809000071	0.10002060001716
151987	100	368	stimuli/plant/tree/plant_tree03.jpg              	1	5	1	plant_tree03.jpg     	plant    	6	tree      	35	tree03      	352	alive    	1	still	0	natural 	1	n	0	0        	 	0.0	0	131.787793300115	131.88781630015	0.100023000035435
152137	100	369	stimuli/animals/cat/animal_cat07.jpg             	1	5	1	animal_cat07.jpg     	animals  	0	cat       	6	cat07       	66	alive    	1	moves	1	natural 	1	n	0	0        	 	0.0	0	131.937797000166	132.037793700118	0.0999966999515891
152287	100	370	stimuli/animals2/pigeon/animal_pigeon02.jpg      	1	5	1	animal_pigeon02.jpg  	animals2 	1	pigeon    	28	pigeon02    	281	alive    	1	moves	1	natural 	1	n	0	0        	 	0.0	0	132.087802499998	132.18779310002	0.099990600021556
152437	100	371	stimuli/nonmovArt/mug/nma_mug01.jpg              	1	5	1	nma_mug01.jpg        	nonmovArt	4	mug       	26	mug01       	260	not_alive	0	still	0	artefact	0	n	0	0        	 	0.0	0	132.237818500027	132.337794900173	0.0999764001462609
152587	100	372	stimuli/animals2/lemur/animal_lemur03.jpg        	1	5	1	animal_lemur03.jpg   	animals2 	1	lemur     	23	lemur03     	232	alive    	1	moves	1	natural 	1	n	0	0        	 	0.0	0	132.387807800202	132.487806300167	0.0999984999652952
152737	100	373	stimuli/nonmovNat/cliff/nmn_cliff03.jpg          	1	5	1	nmn_cliff03.jpg      	nonmovNat	5	cliff     	7	cliff03     	72	not_alive	0	still	0	natural 	1	n	0	0        	 	0.0	0	132.537841400132	132.637809999986	0.0999685998540372
152887	100	374	stimuli/plant/grass/plant_grass07.jpg            	1	5	1	plant_grass07.jpg    	plant    	6	grass     	17	grass07     	176	alive    	1	still	0	natural 	1	n	0	0        	 	0.0	0	132.687814000063	132.787809700007	0.0999956999439746
153037	100	375	stimuli/movArt/bus/ma_bus07.jpg                  	1	5	1	ma_bus07.jpg         	movArt   	2	bus       	3	bus07       	36	not_alive	0	moves	1	artefact	0	n	0	0        	 	0.0	0	132.83781710011	132.937812300166	0.0999952000565827
153187	100	376	stimuli/animals/dolphin/animal_dolphin05.jpg     	1	5	1	animal_dolphin05.jpg 	animals  	0	dolphin   	12	dolphin05   	124	alive    	1	moves	1	natural 	1	n	0	0        	 	0.0	0	132.987847800134	133.087815800216	0.0999680000822991
153337	100	377	stimuli/animals2/pigeon/animal_pigeon01.jpg      	1	5	1	animal_pigeon01.jpg  	animals2 	1	pigeon    	28	pigeon01    	280	alive    	1	moves	1	natural 	1	n	0	0        	 	0.0	0	133.137825400103	133.237824700074	0.0999992999713868
153487	100	378	stimuli/animals2/tiger/animal_tiger01.jpg        	1	5	1	animal_tiger01.jpg   	animals2 	1	tiger     	33	tiger01     	330	alive    	1	moves	1	natural 	1	n	0	0        	 	0.0	0	133.287830100162	133.387821100187	0.0999910000246018
153637	100	379	stimuli/plant/flower/plant_flower07.jpg          	1	5	1	plant_flower07.jpg   	plant    	6	flower    	16	flower07    	166	alive    	1	still	0	natural 	1	n	0	0        	 	0.0	0	133.437831900083	133.537836200092	0.100004300009459
153787	100	380	stimuli/plant2/lemontree/plant_lemontree07.jpg   	1	5	1	plant_lemontree07.jpg	plant2   	7	lemontree 	22	lemontree07 	226	alive    	1	still	0	natural 	1	n	0	0        	 	0.0	0	133.58786560013	133.687831000192	0.0999654000625014
153937	100	381	stimuli/movNat/river/mn_river09.jpg              	1	5	1	mn_river09.jpg       	movNat   	3	river     	29	river09     	298	not_alive	0	moves	1	natural 	1	n	0	0        	 	0.0	0	133.737861100119	133.837834100006	0.0999729998875409
154087	100	382	stimuli/movNat/waves/mn_waves10.jpg              	1	5	1	mn_waves10.jpg       	movNat   	3	waves     	38	waves10     	389	not_alive	0	moves	1	natural 	1	n	0	0        	 	0.0	0	133.88784550014	133.98784600012	0.100000499980524
154237	100	383	stimuli/movNat/hotspring/mn_hotspring02.jpg      	1	5	1	mn_hotspring02.jpg   	movNat   	3	hotspring 	21	hotspring02 	211	not_alive	0	moves	1	natural 	1	n	0	0        	 	0.0	0	134.037849500077	134.137842300115	0.0999928000383079
154387	100	384	stimuli/animals2/pigeon/animal_pigeon05.jpg      	1	5	1	animal_pigeon05.jpg  	animals2 	1	pigeon    	28	pigeon05    	284	alive    	1	moves	1	natural 	1	n	0	0        	 	0.0	0	134.187866300112	134.287858300144	0.0999920000322163
154537	100	385	stimuli/plant/tree/plant_tree03.jpg              	1	5	1	plant_tree03.jpg     	plant    	6	tree      	35	tree03      	352	alive    	1	still	0	natural 	1	n	0	0        	 	0.0	0	134.337868800154	134.437848100206	0.0999793000519276
154687	100	386	stimuli/animals2/lemur/animal_lemur07.jpg        	1	5	1	animal_lemur07.jpg   	animals2 	1	lemur     	23	lemur07     	236	alive    	1	moves	1	natural 	1	n	1	0        	 	0.0	0	134.487866600044	134.587853200035	0.099986599991098
154837	100	387	stimuli/plant2/moss/plant_moss01.jpg             	1	5	1	plant_moss01.jpg     	plant2   	7	moss      	25	moss01      	250	alive    	1	still	0	natural 	1	n	0	0        	 	0.0	0	134.637861200143	134.737858200213	0.0999970000702888
154987	100	388	stimuli/animals/cat/animal_cat06.jpg             	1	5	1	animal_cat06.jpg     	animals  	0	cat       	6	cat06       	65	alive    	1	moves	1	natural 	1	n	0	1        	f	0.300186400068924	1	134.787866800092	134.887860500021	0.0999936999287456
155137	100	389	stimuli/movArt/boat/ma_boat09.jpg                	1	5	1	ma_boat09.jpg        	movArt   	2	boat      	2	boat09      	28	not_alive	0	moves	1	artefact	0	n	0	0        	 	0.0	0	134.937869000016	135.037864900194	0.0999959001783282
155287	100	390	stimuli/animals2/bee/animal_bee02.jpg            	1	5	1	animal_bee02.jpg     	animals2 	1	bee       	0	bee02       	1	alive    	1	moves	1	natural 	1	n	0	0        	 	0.0	0	135.087874200195	135.187867600005	0.099993399810046
155437	100	391	stimuli/plant/vine/plant_vine04.jpg              	1	5	1	plant_vine04.jpg     	plant    	6	vine      	36	vine04      	363	alive    	1	still	0	natural 	1	n	0	0        	 	0.0	0	135.237875899998	135.337870100047	0.0999942000489682
155587	100	392	stimuli/movArt/helicopter/ma_helicopter06.jpg    	1	5	1	ma_helicopter06.jpg  	movArt   	2	helicopter	19	helicopter06	195	not_alive	0	moves	1	artefact	0	n	0	0        	 	0.0	0	135.387881100178	135.4878740001	0.099992899922654
155737	100	393	stimuli/movNat/river/mn_river01.jpg              	1	5	1	mn_river01.jpg       	movNat   	3	river     	29	river01     	290	not_alive	0	moves	1	natural 	1	n	0	0        	 	0.0	0	135.537885500118	135.637877900153	0.0999924000352621
155887	100	394	stimuli/animals/dog/animal_dog05.jpg             	1	5	1	animal_dog05.jpg     	animals  	0	dog       	11	dog05       	114	alive    	1	moves	1	natural 	1	n	0	0        	 	0.0	0	135.687888400164	135.787897100206	0.100008700042963
156037	100	395	stimuli/animals/dog/animal_dog07.jpg             	1	5	1	animal_dog07.jpg     	animals  	0	dog       	11	dog07       	116	alive    	1	moves	1	natural 	1	n	0	0        	 	0.0	0	135.837895400124	135.937896900112	0.100001499988139
156187	100	396	stimuli/nonmovNat/rock/nmn_rock05.jpg            	1	5	1	nmn_rock05.jpg       	nonmovNat	5	rock      	30	rock05      	304	not_alive	0	still	0	natural 	1	n	0	0        	 	0.0	0	135.987893700134	136.087888900191	0.0999952000565827
156337	100	397	stimuli/plant2/moss/plant_moss02.jpg             	1	5	1	plant_moss02.jpg     	plant2   	7	moss      	25	moss02      	251	alive    	1	still	0	natural 	1	n	0	0        	 	0.0	0	136.137899800204	136.23789400002	0.0999941998161376
156487	100	398	stimuli/nonmovNat/crystal/nmn_crystal05.jpg      	1	5	1	nmn_crystal05.jpg    	nonmovNat	5	crystal   	10	crystal05   	104	not_alive	0	still	0	natural 	1	n	0	0        	 	0.0	0	136.28790500015	136.387899700087	0.0999946999363601
156637	100	399	stimuli/plant/cactus/plant_cactus01.jpg          	1	5	1	plant_cactus01.jpg   	plant    	6	cactus    	4	cactus01    	40	alive    	1	still	0	natural 	1	n	0	0        	 	0.0	0	136.437905600062	136.537901300006	0.0999956999439746
159270	100	400	stimuli/nonmovArt/headphones/nma_headphones01.jpg	1	6	1	nma_headphones01.jpg 	nonmovArt	4	headphones	18	headphones01	180	not_alive	0	still	0	artefact	0	n	0	0        	 	0.0	0	139.071307200007	139.17129850015	0.0999913001433015
159420	100	401	stimuli/movArt/boat/ma_boat01.jpg                	1	6	1	ma_boat01.jpg        	movArt   	2	boat      	2	boat01      	20	not_alive	0	moves	1	artefact	0	n	0	0        	 	0.0	0	139.221340400167	139.321302600205	0.099962200038135
159570	100	402	stimuli/movNat/river/mn_river07.jpg              	1	6	1	mn_river07.jpg       	movNat   	3	river     	29	river07     	296	not_alive	0	moves	1	natural 	1	n	0	0        	 	0.0	0	139.371332900133	139.471304300008	0.0999713998753578
159720	100	403	stimuli/movNat/fire/mn_fire07.jpg                	1	6	1	mn_fire07.jpg        	movNat   	3	fire      	15	fire07      	156	not_alive	0	moves	1	natural 	1	n	0	0        	 	0.0	0	139.52131410013	139.621310700197	0.099996600067243
159870	100	404	stimuli/nonmovArt/lock/nma_lock03.jpg            	1	6	1	nma_lock03.jpg       	nonmovArt	4	lock      	24	lock03      	242	not_alive	0	still	0	artefact	0	n	0	0        	 	0.0	0	139.671322799986	139.771313700126	0.0999909001402557
160020	100	405	stimuli/movArt/car/ma_car04.jpg                  	1	6	1	ma_car04.jpg         	movArt   	2	car       	5	car04       	53	not_alive	0	moves	1	artefact	0	n	0	0        	 	0.0	0	139.82132340013	139.921315400163	0.0999920000322163
160170	100	406	stimuli/animals/eagle/animal_eagle06.jpg         	1	6	1	animal_eagle06.jpg   	animals  	0	eagle     	13	eagle06     	135	alive    	1	moves	1	natural 	1	n	0	0        	 	0.0	0	139.971338400152	140.07131850021	0.0999801000580192
160320	100	407	stimuli/movArt/helicopter/ma_helicopter05.jpg    	1	6	1	ma_helicopter05.jpg  	movArt   	2	helicopter	19	helicopter05	194	not_alive	0	moves	1	artefact	0	n	0	0        	 	0.0	0	140.121338200057	140.221324900165	0.0999867001082748
160470	100	408	stimuli/animals2/whale/animal_whale01.jpg        	1	6	1	animal_whale01.jpg   	animals2 	1	whale     	39	whale01     	390	alive    	1	moves	1	natural 	1	n	0	0        	 	0.0	0	140.271333700046	140.371328100096	0.0999944000504911
160620	100	409	stimuli/animals/dolphin/animal_dolphin09.jpg     	1	6	1	animal_dolphin09.jpg 	animals  	0	dolphin   	12	dolphin09   	128	alive    	1	moves	1	natural 	1	n	0	0        	 	0.0	0	140.4213399	140.521331900032	0.0999920000322163
160770	100	410	stimuli/nonmovArt/headphones/nma_headphones02.jpg	1	6	1	nma_headphones02.jpg 	nonmovArt	4	headphones	18	headphones02	181	not_alive	0	still	0	artefact	0	n	0	0        	 	0.0	0	140.571344300173	140.67133900011	0.0999946999363601
160920	100	411	stimuli/plant2/lemontree/plant_lemontree05.jpg   	1	6	1	plant_lemontree05.jpg	plant2   	7	lemontree 	22	lemontree05 	224	alive    	1	still	0	natural 	1	n	0	0        	 	0.0	0	140.721345700091	140.82133990014	0.0999942000489682
161070	100	412	stimuli/movNat/waterfall/mn_waterfall10.jpg      	1	6	1	mn_waterfall10.jpg   	movNat   	3	waterfall 	37	waterfall10 	379	not_alive	0	moves	1	natural 	1	n	0	0        	 	0.0	0	140.871350900037	140.971342400182	0.0999915001448244
