onset	duration	eventnumber	stimulus_file	blockno	trialno	is_faststream	stim	stim_category	category_number	exemplar	exemplar_number	image_name	image_number	aliveness	aliveness_bin	movement	movement_bin	naturalness	naturalness_bin	response_hand_alive	istarget	response	keypressed	rt	correct	time_stimon	time_stimoff	stimdur
95107	100	0	stimuli/plant2/clover/plant_clover07.jpg         	1	1	1	plant_clover07.jpg   	plant2   	7	clover    	9	clover07    	96	alive    	1	still	0	natural 	1	n	0	0        	 	0.0	0	110.997015600005	111.096987099998	0.0999714999925345
95257	100	1	stimuli/movArt/car/ma_car04.jpg                  	1	1	1	ma_car04.jpg         	movArt   	2	car       	5	car04       	53	not_alive	0	moves	1	artefact	0	n	0	0        	 	0.0	0	111.147033500005	111.246992400003	0.0999588999984553
95407	100	2	stimuli/movArt/helicopter/ma_helicopter02.jpg    	1	1	1	ma_helicopter02.jpg  	movArt   	2	helicopter	19	helicopter02	191	not_alive	0	moves	1	artefact	0	n	0	0        	 	0.0	0	111.297000799997	111.397024100006	0.100023300008615
95557	100	3	stimuli/nonmovArt/bench/nma_bench10.jpg          	1	1	1	nma_bench10.jpg      	nonmovArt	4	bench     	1	bench10     	19	not_alive	0	still	0	artefact	0	n	0	1        	f	0.0	0	111.447006400005	111.547000299994	0.0999938999884762
95707	100	4	stimuli/movArt/helicopter/ma_helicopter04.jpg    	1	1	1	ma_helicopter04.jpg  	movArt   	2	helicopter	19	helicopter04	193	not_alive	0	moves	1	artefact	0	n	0	0        	 	0.0	0	111.597008600002	111.6970038	0.099995199998375
95857	100	5	stimuli/animals/cat/animal_cat08.jpg             	1	1	1	animal_cat08.jpg     	animals  	0	cat       	6	cat08       	67	alive    	1	moves	1	natural 	1	n	0	0        	 	0.0	0	111.747018299997	111.847007699995	0.0999893999978667
96007	100	6	stimuli/nonmovNat/rock/nmn_rock04.jpg            	1	1	1	nmn_rock04.jpg       	nonmovNat	5	rock      	30	rock04      	303	not_alive	0	still	0	natural 	1	n	0	0        	 	0.0	0	111.897042500001	111.997036600005	0.099994100004551
96157	100	7	stimuli/movNat/fire/mn_fire09.jpg                	1	1	1	mn_fire09.jpg        	movNat   	3	fire      	15	fire09      	158	not_alive	0	moves	1	natural 	1	n	0	0        	 	0.0	0	112.047326700005	112.147018500007	0.0996918000018923
96307	100	8	stimuli/nonmovNat/crystal/nmn_crystal07.jpg      	1	1	1	nmn_crystal07.jpg    	nonmovNat	5	crystal   	10	crystal07   	106	not_alive	0	still	0	natural 	1	n	0	0        	 	0.0	0	112.197025400004	112.297047800006	0.100022400001762
96457	100	9	stimuli/animals/dog/animal_dog10.jpg             	1	1	1	animal_dog10.jpg     	animals  	0	dog       	11	dog10       	119	alive    	1	moves	1	natural 	1	n	0	0        	 	0.0	0	112.347030200006	112.447023900007	0.0999937000015052
96607	100	10	stimuli/movArt/car/ma_car10.jpg                  	1	1	1	ma_car10.jpg         	movArt   	2	car       	5	car10       	59	not_alive	0	moves	1	artefact	0	n	0	0        	 	0.0	0	112.497047900004	112.597029199998	0.099981299994397
96757	100	11	stimuli/plant/flower/plant_flower09.jpg          	1	1	1	plant_flower09.jpg   	plant    	6	flower    	16	flower09    	168	alive    	1	still	0	natural 	1	n	0	0        	 	0.0	0	112.647037799994	112.747031599996	0.0999938000022666
96907	100	12	stimuli/plant2/palmtree/plant_palmtree08.jpg     	1	1	1	plant_palmtree08.jpg 	plant2   	7	palmtree  	27	palmtree08  	277	alive    	1	still	0	natural 	1	n	0	0        	 	0.0	0	112.797040400008	112.897087400008	0.100046999999904
97057	100	13	stimuli/movArt/bus/ma_bus07.jpg                  	1	1	1	ma_bus07.jpg         	movArt   	2	bus       	3	bus07       	36	not_alive	0	moves	1	artefact	0	n	0	0        	 	0.0	0	112.947044900007	113.047052099995	0.100007199987886
97207	100	14	stimuli/nonmovArt/lock/nma_lock04.jpg            	1	1	1	nma_lock04.jpg       	nonmovArt	4	lock      	24	lock04      	243	not_alive	0	still	0	artefact	0	n	0	0        	 	0.0	0	113.097049699994	113.197044200002	0.0999945000075968
97357	100	15	stimuli/nonmovNat/rock/nmn_rock08.jpg            	1	1	1	nmn_rock08.jpg       	nonmovNat	5	rock      	30	rock08      	307	not_alive	0	still	0	natural 	1	n	0	0        	 	0.0	0	113.247053400002	113.347047400006	0.0999940000037896
97507	100	16	stimuli/animals2/pigeon/animal_pigeon06.jpg      	1	1	1	animal_pigeon06.jpg  	animals2 	1	pigeon    	28	pigeon06    	285	alive    	1	moves	1	natural 	1	n	0	0        	 	0.0	0	113.397105199998	113.497050999998	0.0999458000005688
97657	100	17	stimuli/plant2/lemontree/plant_lemontree10.jpg   	1	1	1	plant_lemontree10.jpg	plant2   	7	lemontree 	22	lemontree10 	229	alive    	1	still	0	natural 	1	n	0	0        	 	0.0	0	113.547062099999	113.647068699996	0.100006599997869
97807	100	18	stimuli/animals2/whale/animal_whale06.jpg        	1	1	1	animal_whale06.jpg   	animals2 	1	whale     	39	whale06     	395	alive    	1	moves	1	natural 	1	n	0	0        	 	0.0	0	113.697079899997	113.797060099998	0.099980200000573
97957	100	19	stimuli/movArt/train/ma_train07.jpg              	1	1	1	ma_train07.jpg       	movArt   	2	train     	34	train07     	346	not_alive	0	moves	1	artefact	0	n	0	0        	 	0.0	0	113.847070699994	113.947080500002	0.100009800007683
98107	100	20	stimuli/animals2/bee/animal_bee09.jpg            	1	1	1	animal_bee09.jpg     	animals2 	1	bee       	0	bee09       	8	alive    	1	moves	1	natural 	1	n	0	0        	 	0.0	0	113.997073000006	114.097066200004	0.099993199997698
98257	100	21	stimuli/animals/dolphin/animal_dolphin03.jpg     	1	1	1	animal_dolphin03.jpg 	animals  	0	dolphin   	12	dolphin03   	122	alive    	1	moves	1	natural 	1	n	1	0        	 	0.0	0	114.147081000003	114.2470875	0.100006499997107
98407	100	22	stimuli/movNat/river/mn_river09.jpg              	1	1	1	mn_river09.jpg       	movNat   	3	river     	29	river09     	298	not_alive	0	moves	1	natural 	1	n	0	0        	 	0.0	0	114.297080500008	114.397077200003	0.0999966999952448
98557	100	23	stimuli/nonmovArt/headphones/nma_headphones02.jpg	1	1	1	nma_headphones02.jpg 	nonmovArt	4	headphones	18	headphones02	181	not_alive	0	still	0	artefact	0	n	0	0        	 	0.0	0	114.447110199995	114.547081800003	0.0999716000078479
98707	100	24	stimuli/animals/eagle/animal_eagle08.jpg         	1	1	1	animal_eagle08.jpg   	animals  	0	eagle     	13	eagle08     	137	alive    	1	moves	1	natural 	1	n	0	1        	f	0.451357400001143	1	114.597093599994	114.697083899999	0.0999903000047198
98857	100	25	stimuli/plant2/palmtree/plant_palmtree06.jpg     	1	1	1	plant_palmtree06.jpg 	plant2   	7	palmtree  	27	palmtree06  	275	alive    	1	still	0	natural 	1	n	0	0        	 	0.0	0	114.747095400002	114.847097899998	0.100002499995753
99007	100	26	stimuli/movNat/river/mn_river10.jpg              	1	1	1	mn_river10.jpg       	movNat   	3	river     	29	river10     	299	not_alive	0	moves	1	natural 	1	n	0	0        	 	0.0	0	114.897097499997	114.997109599994	0.100012099996093
99157	100	27	stimuli/animals/eagle/animal_eagle09.jpg         	1	1	1	animal_eagle09.jpg   	animals  	0	eagle     	13	eagle09     	138	alive    	1	moves	1	natural 	1	n	0	0        	 	0.0	0	115.047119399998	115.147097099994	0.0999776999960886
99307	100	28	stimuli/animals2/whale/animal_whale09.jpg        	1	1	1	animal_whale09.jpg   	animals2 	1	whale     	39	whale09     	398	alive    	1	moves	1	natural 	1	n	0	0        	 	0.0	0	115.1971051	115.297098499999	0.0999933999992209
99457	100	29	stimuli/nonmovNat/cliff/nmn_cliff10.jpg          	1	1	1	nmn_cliff10.jpg      	nonmovNat	5	cliff     	7	cliff10     	79	not_alive	0	still	0	natural 	1	n	0	0        	 	0.0	0	115.347109399998	115.447103099999	0.0999937000015052
99607	100	30	stimuli/movArt/boat/ma_boat05.jpg                	1	1	1	ma_boat05.jpg        	movArt   	2	boat      	2	boat05      	24	not_alive	0	moves	1	artefact	0	n	0	0        	 	0.0	0	115.497114400001	115.597109599999	0.099995199998375
99757	100	31	stimuli/movNat/river/mn_river07.jpg              	1	1	1	mn_river07.jpg       	movNat   	3	river     	29	river07     	296	not_alive	0	moves	1	natural 	1	n	0	0        	 	0.0	0	115.647116599997	115.747112600002	0.0999960000044666
99907	100	32	stimuli/animals/dog/animal_dog08.jpg             	1	1	1	animal_dog08.jpg     	animals  	0	dog       	11	dog08       	117	alive    	1	moves	1	natural 	1	n	0	0        	 	0.0	0	115.797120699994	115.897114299994	0.0999936000007438
100057	100	33	stimuli/movArt/boat/ma_boat03.jpg                	1	1	1	ma_boat03.jpg        	movArt   	2	boat      	2	boat03      	22	not_alive	0	moves	1	artefact	0	n	0	0        	 	0.0	0	115.947127100007	116.047119299998	0.0999921999900835
100207	100	34	stimuli/plant/cactus/plant_cactus06.jpg          	1	1	1	plant_cactus06.jpg   	plant    	6	cactus    	4	cactus06    	45	alive    	1	still	0	natural 	1	n	0	0        	 	0.0	0	116.097127500005	116.197124400001	0.0999968999967678
100357	100	35	stimuli/movArt/car/ma_car07.jpg                  	1	1	1	ma_car07.jpg         	movArt   	2	car       	5	car07       	56	not_alive	0	moves	1	artefact	0	n	0	0        	 	0.0	0	116.247133500001	116.347126099994	0.0999925999931293
100507	100	36	stimuli/movNat/hotspring/mn_hotspring04.jpg      	1	1	1	mn_hotspring04.jpg   	movNat   	3	hotspring 	21	hotspring04 	213	not_alive	0	moves	1	natural 	1	n	0	0        	 	0.0	0	116.3971361	116.497133299999	0.0999971999990521
100657	100	37	stimuli/plant/vine/plant_vine09.jpg              	1	1	1	plant_vine09.jpg     	plant    	6	vine      	36	vine09      	368	alive    	1	still	0	natural 	1	n	0	0        	 	0.0	0	116.5471407	116.647134300001	0.0999936000007438
100807	100	38	stimuli/nonmovNat/cliff/nmn_cliff05.jpg          	1	1	1	nmn_cliff05.jpg      	nonmovNat	5	cliff     	7	cliff05     	74	not_alive	0	still	0	natural 	1	n	0	0        	 	0.0	0	116.6971452	116.797139200004	0.0999940000037896
100957	100	39	stimuli/plant2/moss/plant_moss10.jpg             	1	1	1	plant_moss10.jpg     	plant2   	7	moss      	25	moss10      	259	alive    	1	still	0	natural 	1	n	0	0        	 	0.0	0	116.847148400004	116.947142400008	0.0999940000037896
101107	100	40	stimuli/movNat/waves/mn_waves03.jpg              	1	1	1	mn_waves03.jpg       	movNat   	3	waves     	38	waves03     	382	not_alive	0	moves	1	natural 	1	n	0	0        	 	0.0	0	116.997155400008	117.097147799999	0.0999923999916064
101257	100	41	stimuli/movNat/waterfall/mn_waterfall10.jpg      	1	1	1	mn_waterfall10.jpg   	movNat   	3	waterfall 	37	waterfall10 	379	not_alive	0	moves	1	natural 	1	n	0	0        	 	0.0	0	117.147159500004	117.247153200005	0.0999937000015052
101407	100	42	stimuli/movArt/train/ma_train04.jpg              	1	1	1	ma_train04.jpg       	movArt   	2	train     	34	train04     	343	not_alive	0	moves	1	artefact	0	n	0	0        	 	0.0	0	117.297162100003	117.397154799997	0.0999926999938907
101557	100	43	stimuli/animals2/tiger/animal_tiger03.jpg        	1	1	1	animal_tiger03.jpg   	animals2 	1	tiger     	33	tiger03     	332	alive    	1	moves	1	natural 	1	n	0	0        	 	0.0	0	117.447165100006	117.547158700007	0.0999936000007438
101707	100	44	stimuli/nonmovArt/headphones/nma_headphones01.jpg	1	1	1	nma_headphones01.jpg 	nonmovArt	4	headphones	18	headphones01	180	not_alive	0	still	0	artefact	0	n	0	0        	 	0.0	0	117.597169900007	117.697163000004	0.0999930999969365
101857	100	45	stimuli/movNat/waterfall/mn_waterfall05.jpg      	1	1	1	mn_waterfall05.jpg   	movNat   	3	waterfall 	37	waterfall05 	374	not_alive	0	moves	1	natural 	1	n	0	0        	 	0.0	0	117.747172899995	117.847166299995	0.0999933999992209
102007	100	46	stimuli/nonmovNat/sand/nmn_sand09.jpg            	1	1	1	nmn_sand09.jpg       	nonmovNat	5	sand      	31	sand09      	318	not_alive	0	still	0	natural 	1	n	0	0        	 	0.0	0	117.897192699995	117.997189800008	0.0999971000128426
102157	100	47	stimuli/plant/cactus/plant_cactus03.jpg          	1	1	1	plant_cactus03.jpg   	plant    	6	cactus    	4	cactus03    	42	alive    	1	still	0	natural 	1	n	0	0        	 	0.0	0	118.047180599999	118.147175100006	0.0999945000075968
102307	100	48	stimuli/plant/tree/plant_tree07.jpg              	1	1	1	plant_tree07.jpg     	plant    	6	tree      	35	tree07      	356	alive    	1	still	0	natural 	1	n	0	0        	 	0.0	0	118.197186100006	118.297177800006	0.0999917000008281
102457	100	49	stimuli/plant/grass/plant_grass05.jpg            	1	1	1	plant_grass05.jpg    	plant    	6	grass     	17	grass05     	174	alive    	1	still	0	natural 	1	n	0	0        	 	0.0	0	118.347193699999	118.447181700001	0.0999880000017583
102607	100	50	stimuli/plant/vine/plant_vine09.jpg              	1	1	1	plant_vine09.jpg     	plant    	6	vine      	36	vine09      	368	alive    	1	still	0	natural 	1	n	0	0        	 	0.0	0	118.497193600007	118.597187199994	0.0999935999861918
102757	100	51	stimuli/movNat/waves/mn_waves04.jpg              	1	1	1	mn_waves04.jpg       	movNat   	3	waves     	38	waves04     	383	not_alive	0	moves	1	natural 	1	n	0	0        	 	0.0	0	118.647198000006	118.747193400006	0.0999953999998979
102907	100	52	stimuli/nonmovArt/clothespeg/nma_clothespeg06.jpg	1	1	1	nma_clothespeg06.jpg 	nonmovArt	4	clothespeg	8	clothespeg06	85	not_alive	0	still	0	artefact	0	n	0	0        	 	0.0	0	118.797201699999	118.897195400001	0.0999937000015052
103057	100	53	stimuli/plant2/lemontree/plant_lemontree09.jpg   	1	1	1	plant_lemontree09.jpg	plant2   	7	lemontree 	22	lemontree09 	228	alive    	1	still	0	natural 	1	n	0	0        	 	0.0	0	118.947206199999	119.0471999	0.0999937000015052
103207	100	54	stimuli/nonmovNat/sand/nmn_sand02.jpg            	1	1	1	nmn_sand02.jpg       	nonmovNat	5	sand      	31	sand02      	311	not_alive	0	still	0	natural 	1	n	0	0        	 	0.0	0	119.097209700005	119.197201899995	0.0999921999900835
103357	100	55	stimuli/animals/horse/animal_horse07.jpg         	1	1	1	animal_horse07.jpg   	animals  	0	horse     	20	horse07     	206	alive    	1	moves	1	natural 	1	n	0	0        	 	0.0	0	119.247213099996	119.347208299994	0.099995199998375
103507	100	56	stimuli/animals/cat/animal_cat10.jpg             	1	1	1	animal_cat10.jpg     	animals  	0	cat       	6	cat10       	69	alive    	1	moves	1	natural 	1	n	0	0        	 	0.0	0	119.397216800004	119.497201300008	0.0999845000042114
103657	100	57	stimuli/animals2/lemur/animal_lemur09.jpg        	1	1	1	animal_lemur09.jpg   	animals2 	1	lemur     	23	lemur09     	238	alive    	1	moves	1	natural 	1	n	0	0        	 	0.0	0	119.547222699999	119.647215699995	0.0999929999961751
103807	100	58	stimuli/movArt/bus/ma_bus02.jpg                  	1	1	1	ma_bus02.jpg         	movArt   	2	bus       	3	bus02       	31	not_alive	0	moves	1	artefact	0	n	0	0        	 	0.0	0	119.697225099997	119.797217400002	0.0999923000053968
103957	100	59	stimuli/animals/dolphin/animal_dolphin05.jpg     	1	1	1	animal_dolphin05.jpg 	animals  	0	dolphin   	12	dolphin05   	124	alive    	1	moves	1	natural 	1	n	0	0        	 	0.0	0	119.847230300002	119.947222300005	0.0999920000031125
104107	100	60	stimuli/nonmovArt/bench/nma_bench02.jpg          	1	1	1	nma_bench02.jpg      	nonmovArt	4	bench     	1	bench02     	11	not_alive	0	still	0	artefact	0	n	0	0        	 	0.0	0	119.997233999995	120.097225699996	0.0999917000008281
104257	100	61	stimuli/nonmovNat/crystal/nmn_crystal05.jpg      	1	1	1	nmn_crystal05.jpg    	nonmovNat	5	crystal   	10	crystal05   	104	not_alive	0	still	0	natural 	1	n	0	0        	 	0.0	0	120.1472373	120.247232099995	0.0999947999953292
104407	100	62	stimuli/nonmovArt/mug/nma_mug09.jpg              	1	1	1	nma_mug09.jpg        	nonmovArt	4	mug       	26	mug09       	268	not_alive	0	still	0	artefact	0	n	0	0        	 	0.0	0	120.297240100001	120.397234999997	0.0999948999960907
104557	100	63	stimuli/nonmovNat/rock/nmn_rock01.jpg            	1	1	1	nmn_rock01.jpg       	nonmovNat	5	rock      	30	rock01      	300	not_alive	0	still	0	natural 	1	n	1	0        	 	0.0	0	120.447245300005	120.547239799998	0.0999944999930449
104707	100	64	stimuli/animals2/lemur/animal_lemur08.jpg        	1	1	1	animal_lemur08.jpg   	animals2 	1	lemur     	23	lemur08     	237	alive    	1	moves	1	natural 	1	n	0	0        	 	0.0	0	120.597252399995	120.697243700008	0.0999913000123342
104857	100	65	stimuli/nonmovNat/cliff/nmn_cliff09.jpg          	1	1	1	nmn_cliff09.jpg      	nonmovNat	5	cliff     	7	cliff09     	78	not_alive	0	still	0	natural 	1	n	0	0        	 	0.0	0	120.747254999995	120.847246499994	0.0999914999993052
105007	100	66	stimuli/plant2/lemontree/plant_lemontree08.jpg   	1	1	1	plant_lemontree08.jpg	plant2   	7	lemontree 	22	lemontree08 	227	alive    	1	still	0	natural 	1	n	0	1        	f	0.541998000000603	1	120.8972583	120.997251599998	0.0999932999984594
105157	100	67	stimuli/plant2/moss/plant_moss10.jpg             	1	1	1	plant_moss10.jpg     	plant2   	7	moss      	25	moss10      	259	alive    	1	still	0	natural 	1	n	0	0        	 	0.0	0	121.047260299994	121.147257500008	0.099997200013604
105307	100	68	stimuli/nonmovArt/lock/nma_lock07.jpg            	1	1	1	nma_lock07.jpg       	nonmovArt	4	lock      	24	lock07      	246	not_alive	0	still	0	artefact	0	n	0	0        	 	0.0	0	121.197266000003	121.2972591	0.0999930999969365
105457	100	69	stimuli/animals2/bee/animal_bee05.jpg            	1	1	1	animal_bee05.jpg     	animals2 	1	bee       	0	bee05       	4	alive    	1	moves	1	natural 	1	n	0	0        	 	0.0	0	121.347269599995	121.447262700007	0.0999931000114884
105607	100	70	stimuli/nonmovArt/headphones/nma_headphones01.jpg	1	1	1	nma_headphones01.jpg 	nonmovArt	4	headphones	18	headphones01	180	not_alive	0	still	0	artefact	0	n	0	0        	 	0.0	0	121.497272499997	121.597266900004	0.0999944000068354
105757	100	71	stimuli/plant/flower/plant_flower03.jpg          	1	1	1	plant_flower03.jpg   	plant    	6	flower    	16	flower03    	162	alive    	1	still	0	natural 	1	n	0	0        	 	0.0	0	121.647277600001	121.747270499996	0.0999928999954136
105907	100	72	stimuli/animals/dog/animal_dog10.jpg             	1	1	1	animal_dog10.jpg     	animals  	0	dog       	11	dog10       	119	alive    	1	moves	1	natural 	1	n	0	0        	 	0.0	0	121.797283499996	121.897275199997	0.0999917000008281
106057	100	73	stimuli/animals2/tiger/animal_tiger06.jpg        	1	1	1	animal_tiger06.jpg   	animals2 	1	tiger     	33	tiger06     	335	alive    	1	moves	1	natural 	1	n	0	0        	 	0.0	0	121.947284199996	122.047280700004	0.0999965000082739
106207	100	74	stimuli/nonmovNat/shell/nmn_shell10.jpg          	1	1	1	nmn_shell10.jpg      	nonmovNat	5	shell     	32	shell10     	329	not_alive	0	still	0	natural 	1	n	0	0        	 	0.0	0	122.097289700003	122.197282299996	0.0999925999931293
106357	100	75	stimuli/nonmovNat/crystal/nmn_crystal03.jpg      	1	1	1	nmn_crystal03.jpg    	nonmovNat	5	crystal   	10	crystal03   	102	not_alive	0	still	0	natural 	1	n	0	0        	 	0.0	0	122.247295199995	122.347286599994	0.0999913999985438
106507	100	76	stimuli/plant2/palmtree/plant_palmtree05.jpg     	1	1	1	plant_palmtree05.jpg 	plant2   	7	palmtree  	27	palmtree05  	274	alive    	1	still	0	natural 	1	n	0	0        	 	0.0	0	122.397298199998	122.497294000001	0.0999958000029437
106657	100	77	stimuli/movNat/fire/mn_fire08.jpg                	1	1	1	mn_fire08.jpg        	movNat   	3	fire      	15	fire08      	157	not_alive	0	moves	1	natural 	1	n	0	0        	 	0.0	0	122.5473164	122.647296299998	0.0999798999982886
106807	100	78	stimuli/movArt/bus/ma_bus06.jpg                  	1	1	1	ma_bus06.jpg         	movArt   	2	bus       	3	bus06       	35	not_alive	0	moves	1	artefact	0	n	0	0        	 	0.0	0	122.697304500005	122.797298799996	0.099994299991522
106957	100	79	stimuli/movNat/hotspring/mn_hotspring05.jpg      	1	1	1	mn_hotspring05.jpg   	movNat   	3	hotspring 	21	hotspring05 	214	not_alive	0	moves	1	natural 	1	n	0	0        	 	0.0	0	122.847310500001	122.947301599997	0.0999910999962594
112758	100	80	stimuli/nonmovNat/shell/nmn_shell05.jpg          	1	2	1	nmn_shell05.jpg      	nonmovNat	5	shell     	32	shell05     	324	not_alive	0	still	0	natural 	1	n	0	0        	 	0.0	0	128.647473000005	128.747464500004	0.0999914999993052
112908	100	81	stimuli/plant2/clover/plant_clover05.jpg         	1	2	1	plant_clover05.jpg   	plant2   	7	clover    	9	clover05    	94	alive    	1	still	0	natural 	1	n	0	0        	 	0.0	0	128.797474200008	128.897467300005	0.0999930999969365
113058	100	82	stimuli/animals/horse/animal_horse04.jpg         	1	2	1	animal_horse04.jpg   	animals  	0	horse     	20	horse04     	203	alive    	1	moves	1	natural 	1	n	0	0        	 	0.0	0	128.947478899994	129.0474884	0.100009500005399
113208	100	83	stimuli/plant/grass/plant_grass06.jpg            	1	2	1	plant_grass06.jpg    	plant    	6	grass     	17	grass06     	175	alive    	1	still	0	natural 	1	n	0	0        	 	0.0	0	129.097481300007	129.197496399996	0.100015099989832
113358	100	84	stimuli/plant/flower/plant_flower06.jpg          	1	2	1	plant_flower06.jpg   	plant    	6	flower    	16	flower06    	165	alive    	1	still	0	natural 	1	n	0	0        	 	0.0	0	129.247483900006	129.347482199999	0.0999982999928761
113508	100	85	stimuli/nonmovArt/mug/nma_mug10.jpg              	1	2	1	nma_mug10.jpg        	nonmovArt	4	mug       	26	mug10       	269	not_alive	0	still	0	artefact	0	n	0	0        	 	0.0	0	129.397504000008	129.497486099994	0.0999820999859367
113658	100	86	stimuli/plant/grass/plant_grass07.jpg            	1	2	1	plant_grass07.jpg    	plant    	6	grass     	17	grass07     	176	alive    	1	still	0	natural 	1	n	0	0        	 	0.0	0	129.547494400002	129.647488400005	0.0999940000037896
113808	100	87	stimuli/plant2/fern/plant_fern09.jpg             	1	2	1	plant_fern09.jpg     	plant2   	7	fern      	14	fern09      	148	alive    	1	still	0	natural 	1	n	0	0        	 	0.0	0	129.6974988	129.797508000003	0.100009200003115
113958	100	88	stimuli/nonmovNat/shell/nmn_shell08.jpg          	1	2	1	nmn_shell08.jpg      	nonmovNat	5	shell     	32	shell08     	327	not_alive	0	still	0	natural 	1	n	0	0        	 	0.0	0	129.847502000004	129.947469599996	0.0999675999919418
114108	100	89	stimuli/movNat/fire/mn_fire01.jpg                	1	2	1	mn_fire01.jpg        	movNat   	3	fire      	15	fire01      	150	not_alive	0	moves	1	natural 	1	n	0	0        	 	0.0	0	129.997518000004	130.097500999997	0.0999829999927897
114258	100	90	stimuli/movArt/train/ma_train05.jpg              	1	2	1	ma_train05.jpg       	movArt   	2	train     	34	train05     	344	not_alive	0	moves	1	artefact	0	n	0	0        	 	0.0	0	130.147510499999	130.247506500004	0.0999960000044666
114408	100	91	stimuli/animals2/pigeon/animal_pigeon04.jpg      	1	2	1	animal_pigeon04.jpg  	animals2 	1	pigeon    	28	pigeon04    	283	alive    	1	moves	1	natural 	1	n	0	0        	 	0.0	0	130.297541799999	130.397506699999	0.0999649000004865
114558	100	92	stimuli/nonmovArt/lock/nma_lock03.jpg            	1	2	1	nma_lock03.jpg       	nonmovArt	4	lock      	24	lock03      	242	not_alive	0	still	0	artefact	0	n	0	0        	 	0.0	0	130.447518300003	130.5475229	0.100004599997192
114708	100	93	stimuli/animals2/whale/animal_whale05.jpg        	1	2	1	animal_whale05.jpg   	animals2 	1	whale     	39	whale05     	394	alive    	1	moves	1	natural 	1	n	0	0        	 	0.0	0	130.597522800002	130.697526500007	0.100003700004891
114858	100	94	stimuli/nonmovArt/clothespeg/nma_clothespeg05.jpg	1	2	1	nma_clothespeg05.jpg 	nonmovArt	4	clothespeg	8	clothespeg05	84	not_alive	0	still	0	artefact	0	n	0	0        	 	0.0	0	130.747524100007	130.8475187	0.0999945999938063
115008	100	95	stimuli/animals2/bee/animal_bee02.jpg            	1	2	1	animal_bee02.jpg     	animals2 	1	bee       	0	bee02       	1	alive    	1	moves	1	natural 	1	n	0	0        	 	0.0	0	130.897547100001	130.997524000006	0.099976900004549
115158	100	96	stimuli/movArt/boat/ma_boat10.jpg                	1	2	1	ma_boat10.jpg        	movArt   	2	boat      	2	boat10      	29	not_alive	0	moves	1	artefact	0	n	0	0        	 	0.0	0	131.047556899997	131.147526800007	0.0999699000094552
115308	100	97	stimuli/animals/cat/animal_cat07.jpg             	1	2	1	animal_cat07.jpg     	animals  	0	cat       	6	cat07       	66	alive    	1	moves	1	natural 	1	n	0	0        	 	0.0	0	131.197540099995	131.297531999997	0.099991900002351
115458	100	98	stimuli/animals/dolphin/animal_dolphin01.jpg     	1	2	1	animal_dolphin01.jpg 	animals  	0	dolphin   	12	dolphin01   	120	alive    	1	moves	1	natural 	1	n	0	0        	 	0.0	0	131.347543299999	131.447536199994	0.0999928999954136
115608	100	99	stimuli/movNat/waterfall/mn_waterfall08.jpg      	1	2	1	mn_waterfall08.jpg   	movNat   	3	waterfall 	37	waterfall08 	377	not_alive	0	moves	1	natural 	1	n	0	0        	 	0.0	0	131.497545499995	131.597539099996	0.0999936000007438
115758	100	100	stimuli/movNat/hotspring/mn_hotspring02.jpg      	1	2	1	mn_hotspring02.jpg   	movNat   	3	hotspring 	21	hotspring02 	211	not_alive	0	moves	1	natural 	1	n	0	0        	 	0.0	0	131.647563000006	131.747545899998	0.0999828999920282
115908	100	101	stimuli/plant2/clover/plant_clover07.jpg         	1	2	1	plant_clover07.jpg   	plant2   	7	clover    	9	clover07    	96	alive    	1	still	0	natural 	1	n	0	0        	 	0.0	0	131.797567400004	131.897547	0.0999795999960042
116058	100	102	stimuli/plant/cactus/plant_cactus09.jpg          	1	2	1	plant_cactus09.jpg   	plant    	6	cactus    	4	cactus09    	48	alive    	1	still	0	natural 	1	n	0	0        	 	0.0	0	131.947555799998	132.047550200004	0.0999944000068354
116208	100	103	stimuli/nonmovNat/sand/nmn_sand09.jpg            	1	2	1	nmn_sand09.jpg       	nonmovNat	5	sand      	31	sand09      	318	not_alive	0	still	0	natural 	1	n	0	0        	 	0.0	0	132.097561600007	132.197556400002	0.0999947999953292
116358	100	104	stimuli/plant2/fern/plant_fern03.jpg             	1	2	1	plant_fern03.jpg     	plant2   	7	fern      	14	fern03      	142	alive    	1	still	0	natural 	1	n	0	0        	 	0.0	0	132.247566000005	132.347561799994	0.0999957999883918
116508	100	105	stimuli/plant2/moss/plant_moss03.jpg             	1	2	1	plant_moss03.jpg     	plant2   	7	moss      	25	moss03      	252	alive    	1	still	0	natural 	1	n	0	0        	 	0.0	0	132.397578100004	132.497567500002	0.0999893999978667
116658	100	106	stimuli/animals2/pigeon/animal_pigeon06.jpg      	1	2	1	animal_pigeon06.jpg  	animals2 	1	pigeon    	28	pigeon06    	285	alive    	1	moves	1	natural 	1	n	1	0        	 	0.0	0	132.547588600006	132.647566900006	0.0999783000006573
116808	100	107	stimuli/plant2/fern/plant_fern10.jpg             	1	2	1	plant_fern10.jpg     	plant2   	7	fern      	14	fern10      	149	alive    	1	still	0	natural 	1	n	0	0        	 	0.0	0	132.697597699997	132.797582600004	0.0999849000072572
116958	100	108	stimuli/plant/tree/plant_tree04.jpg              	1	2	1	plant_tree04.jpg     	plant    	6	tree      	35	tree04      	353	alive    	1	still	0	natural 	1	n	0	1        	f	0.391965699993307	1	132.847583099996	132.9475905	0.10000740000396
117108	100	109	stimuli/animals2/lemur/animal_lemur02.jpg        	1	2	1	animal_lemur02.jpg   	animals2 	1	lemur     	23	lemur02     	231	alive    	1	moves	1	natural 	1	n	0	0        	 	0.0	0	132.9975882	133.097580600006	0.0999924000061583
117258	100	110	stimuli/movNat/waves/mn_waves09.jpg              	1	2	1	mn_waves09.jpg       	movNat   	3	waves     	38	waves09     	388	not_alive	0	moves	1	natural 	1	n	0	0        	 	0.0	0	133.147600199998	133.247581699994	0.0999814999959199
117408	100	111	stimuli/animals/eagle/animal_eagle04.jpg         	1	2	1	animal_eagle04.jpg   	animals  	0	eagle     	13	eagle04     	133	alive    	1	moves	1	natural 	1	n	0	0        	 	0.0	0	133.297593900003	133.3976004	0.100006499997107
117558	100	112	stimuli/plant/vine/plant_vine06.jpg              	1	2	1	plant_vine06.jpg     	plant    	6	vine      	36	vine06      	365	alive    	1	still	0	natural 	1	n	0	0        	 	0.0	0	133.4475963	133.547591900002	0.0999956000014208
117708	100	113	stimuli/animals/horse/animal_horse08.jpg         	1	2	1	animal_horse08.jpg   	animals  	0	horse     	20	horse08     	207	alive    	1	moves	1	natural 	1	n	0	0        	 	0.0	0	133.597601200003	133.697595599995	0.0999943999922834
117858	100	114	stimuli/animals2/tiger/animal_tiger03.jpg        	1	2	1	animal_tiger03.jpg   	animals2 	1	tiger     	33	tiger03     	332	alive    	1	moves	1	natural 	1	n	0	0        	 	0.0	0	133.747605800003	133.847599600005	0.0999938000022666
118008	100	115	stimuli/nonmovArt/bench/nma_bench07.jpg          	1	2	1	nma_bench07.jpg      	nonmovArt	4	bench     	1	bench07     	16	not_alive	0	still	0	artefact	0	n	1	0        	 	0.0	0	133.897609699998	133.997636600005	0.100026900006924
118158	100	116	stimuli/movArt/helicopter/ma_helicopter01.jpg    	1	2	1	ma_helicopter01.jpg  	movArt   	2	helicopter	19	helicopter01	190	not_alive	0	moves	1	artefact	0	n	0	0        	 	0.0	0	134.047613300005	134.147607899999	0.0999945999938063
118308	100	117	stimuli/plant/tree/plant_tree08.jpg              	1	2	1	plant_tree08.jpg     	plant    	6	tree      	35	tree08      	357	alive    	1	still	0	natural 	1	n	0	1        	f	0.391974199999822	1	134.197616899997	134.297610599999	0.0999937000015052
118458	100	118	stimuli/nonmovArt/clothespeg/nma_clothespeg06.jpg	1	2	1	nma_clothespeg06.jpg 	nonmovArt	4	clothespeg	8	clothespeg06	85	not_alive	0	still	0	artefact	0	n	0	0        	 	0.0	0	134.347634499994	134.447618899998	0.09998440000345
118608	100	119	stimuli/nonmovArt/mug/nma_mug10.jpg              	1	2	1	nma_mug10.jpg        	nonmovArt	4	mug       	26	mug10       	269	not_alive	0	still	0	artefact	0	n	0	0        	 	0.0	0	134.497628800003	134.597617499996	0.0999886999925366
118758	100	120	stimuli/nonmovNat/cliff/nmn_cliff02.jpg          	1	2	1	nmn_cliff02.jpg      	nonmovNat	5	cliff     	7	cliff02     	71	not_alive	0	still	0	natural 	1	n	0	0        	 	0.0	0	134.647628799998	134.747651400001	0.100022600003285
118908	100	121	stimuli/plant2/fern/plant_fern05.jpg             	1	2	1	plant_fern05.jpg     	plant2   	7	fern      	14	fern05      	144	alive    	1	still	0	natural 	1	n	0	0        	 	0.0	0	134.797632899994	134.897627500002	0.0999946000083582
119058	100	122	stimuli/nonmovNat/sand/nmn_sand03.jpg            	1	2	1	nmn_sand03.jpg       	nonmovNat	5	sand      	31	sand03      	312	not_alive	0	still	0	natural 	1	n	0	0        	 	0.0	0	134.9476364	135.047630500005	0.099994100004551
119208	100	123	stimuli/nonmovNat/cliff/nmn_cliff03.jpg          	1	2	1	nmn_cliff03.jpg      	nonmovNat	5	cliff     	7	cliff03     	72	not_alive	0	still	0	natural 	1	n	1	0        	 	0.0	0	135.097641300003	135.197638700003	0.099997400000575
119358	100	124	stimuli/movNat/hotspring/mn_hotspring03.jpg      	1	2	1	mn_hotspring03.jpg   	movNat   	3	hotspring 	21	hotspring03 	212	not_alive	0	moves	1	natural 	1	n	0	0        	 	0.0	0	135.247644799994	135.347662800006	0.100018000011914
119508	100	125	stimuli/nonmovArt/lock/nma_lock04.jpg            	1	2	1	nma_lock04.jpg       	nonmovArt	4	lock      	24	lock04      	243	not_alive	0	still	0	artefact	0	n	0	1        	f	0.391972900004475	1	135.397650800005	135.497654499995	0.100003699990339
119658	100	126	stimuli/animals/eagle/animal_eagle09.jpg         	1	2	1	animal_eagle09.jpg   	animals  	0	eagle     	13	eagle09     	138	alive    	1	moves	1	natural 	1	n	0	0        	 	0.0	0	135.5476777	135.647647999998	0.099970299997949
119808	100	127	stimuli/plant2/clover/plant_clover08.jpg         	1	2	1	plant_clover08.jpg   	plant2   	7	clover    	9	clover08    	97	alive    	1	still	0	natural 	1	n	0	0        	 	0.0	0	135.697656699995	135.797650299995	0.0999936000007438
119958	100	128	stimuli/movArt/bus/ma_bus07.jpg                  	1	2	1	ma_bus07.jpg         	movArt   	2	bus       	3	bus07       	36	not_alive	0	moves	1	artefact	0	n	0	0        	 	0.0	0	135.847682899999	135.947660399994	0.0999774999945657
120108	100	129	stimuli/nonmovArt/mug/nma_mug07.jpg              	1	2	1	nma_mug07.jpg        	nonmovArt	4	mug       	26	mug07       	266	not_alive	0	still	0	artefact	0	n	0	0        	 	0.0	0	135.9976647	136.097674999997	0.100010299996939
120258	100	130	stimuli/nonmovArt/lock/nma_lock07.jpg            	1	2	1	nma_lock07.jpg       	nonmovArt	4	lock      	24	lock07      	246	not_alive	0	still	0	artefact	0	n	0	0        	 	0.0	0	136.1476711	136.247664099996	0.0999929999961751
120408	100	131	stimuli/movNat/waterfall/mn_waterfall06.jpg      	1	2	1	mn_waterfall06.jpg   	movNat   	3	waterfall 	37	waterfall06 	375	not_alive	0	moves	1	natural 	1	n	0	0        	 	0.0	0	136.2976757	136.397667099998	0.0999913999985438
120558	100	132	stimuli/movNat/waves/mn_waves02.jpg              	1	2	1	mn_waves02.jpg       	movNat   	3	waves     	38	waves02     	381	not_alive	0	moves	1	natural 	1	n	0	0        	 	0.0	0	136.447693499998	136.547672200002	0.0999787000037031
120708	100	133	stimuli/nonmovNat/sand/nmn_sand05.jpg            	1	2	1	nmn_sand05.jpg       	nonmovNat	5	sand      	31	sand05      	314	not_alive	0	still	0	natural 	1	n	0	0        	 	0.0	0	136.5977098	136.697679400007	0.0999696000071708
120858	100	134	stimuli/plant2/palmtree/plant_palmtree05.jpg     	1	2	1	plant_palmtree05.jpg 	plant2   	7	palmtree  	27	palmtree05  	274	alive    	1	still	0	natural 	1	n	0	0        	 	0.0	0	136.747683900001	136.847688299997	0.100004399995669
121008	100	135	stimuli/plant/flower/plant_flower05.jpg          	1	2	1	plant_flower05.jpg   	plant    	6	flower    	16	flower05    	164	alive    	1	still	0	natural 	1	n	0	0        	 	0.0	0	136.897691200007	136.997684600006	0.0999933999992209
121158	100	136	stimuli/plant/flower/plant_flower03.jpg          	1	2	1	plant_flower03.jpg   	plant    	6	flower    	16	flower03    	162	alive    	1	still	0	natural 	1	n	0	0        	 	0.0	0	137.047694599998	137.147687799996	0.099993199997698
121308	100	137	stimuli/animals2/pigeon/animal_pigeon03.jpg      	1	2	1	animal_pigeon03.jpg  	animals2 	1	pigeon    	28	pigeon03    	282	alive    	1	moves	1	natural 	1	n	0	0        	 	0.0	0	137.197721200006	137.297690199994	0.0999689999880502
121458	100	138	stimuli/plant/tree/plant_tree09.jpg              	1	2	1	plant_tree09.jpg     	plant    	6	tree      	35	tree09      	358	alive    	1	still	0	natural 	1	n	0	0        	 	0.0	0	137.347715600001	137.447696300005	0.0999807000043802
121608	100	139	stimuli/nonmovArt/bench/nma_bench10.jpg          	1	2	1	nma_bench10.jpg      	nonmovArt	4	bench     	1	bench10     	19	not_alive	0	still	0	artefact	0	n	0	0        	 	0.0	0	137.497707500006	137.597709199996	0.100001699989662
121758	100	140	stimuli/animals/dolphin/animal_dolphin10.jpg     	1	2	1	animal_dolphin10.jpg 	animals  	0	dolphin   	12	dolphin10   	129	alive    	1	moves	1	natural 	1	n	0	0        	 	0.0	0	137.647710100005	137.747702599998	0.0999924999923678
121908	100	141	stimuli/plant2/lemontree/plant_lemontree02.jpg   	1	2	1	plant_lemontree02.jpg	plant2   	7	lemontree 	22	lemontree02 	221	alive    	1	still	0	natural 	1	n	0	0        	 	0.0	0	137.797714500004	137.897705700001	0.0999911999970209
122058	100	142	stimuli/plant/flower/plant_flower01.jpg          	1	2	1	plant_flower01.jpg   	plant    	6	flower    	16	flower01    	160	alive    	1	still	0	natural 	1	n	0	0        	 	0.0	0	137.9477185	138.047710400002	0.099991900002351
122208	100	143	stimuli/animals/dog/animal_dog01.jpg             	1	2	1	animal_dog01.jpg     	animals  	0	dog       	11	dog01       	110	alive    	1	moves	1	natural 	1	n	0	0        	 	0.0	0	138.097734499999	138.197719600008	0.0999851000087801
122358	100	144	stimuli/movNat/river/mn_river01.jpg              	1	2	1	mn_river01.jpg       	movNat   	3	river     	29	river01     	290	not_alive	0	moves	1	natural 	1	n	0	0        	 	0.0	0	138.247728200004	138.347719600002	0.0999913999985438
122508	100	145	stimuli/plant/cactus/plant_cactus08.jpg          	1	2	1	plant_cactus08.jpg   	plant    	6	cactus    	4	cactus08    	47	alive    	1	still	0	natural 	1	n	0	0        	 	0.0	0	138.397731999998	138.497724600005	0.0999926000076812
122658	100	146	stimuli/nonmovArt/bench/nma_bench09.jpg          	1	2	1	nma_bench09.jpg      	nonmovArt	4	bench     	1	bench09     	18	not_alive	0	still	0	artefact	0	n	0	0        	 	0.0	0	138.547734499996	138.647727300005	0.0999928000092041
122808	100	147	stimuli/nonmovArt/clothespeg/nma_clothespeg03.jpg	1	2	1	nma_clothespeg03.jpg 	nonmovArt	4	clothespeg	8	clothespeg03	82	not_alive	0	still	0	artefact	0	n	0	0        	 	0.0	0	138.6977376	138.797733500003	0.0999959000037052
122958	100	148	stimuli/movArt/boat/ma_boat08.jpg                	1	2	1	ma_boat08.jpg        	movArt   	2	boat      	2	boat08      	27	not_alive	0	moves	1	artefact	0	n	0	0        	 	0.0	0	138.847741599995	138.947736899994	0.0999952999991365
123108	100	149	stimuli/plant2/clover/plant_clover06.jpg         	1	2	1	plant_clover06.jpg   	plant2   	7	clover    	9	clover06    	95	alive    	1	still	0	natural 	1	n	0	0        	 	0.0	0	138.997744299995	139.097752600006	0.100008300010813
123258	100	150	stimuli/animals2/bee/animal_bee03.jpg            	1	2	1	animal_bee03.jpg     	animals2 	1	bee       	0	bee03       	2	alive    	1	moves	1	natural 	1	n	0	0        	 	0.0	0	139.147750300006	139.247743700005	0.0999933999992209
123408	100	151	stimuli/nonmovNat/crystal/nmn_crystal09.jpg      	1	2	1	nmn_crystal09.jpg    	nonmovNat	5	crystal   	10	crystal09   	108	not_alive	0	still	0	natural 	1	n	0	0        	 	0.0	0	139.297757399996	139.397748100004	0.0999907000077656
123558	100	152	stimuli/movNat/hotspring/mn_hotspring03.jpg      	1	2	1	mn_hotspring03.jpg   	movNat   	3	hotspring 	21	hotspring03 	212	not_alive	0	moves	1	natural 	1	n	0	0        	 	0.0	0	139.447756599999	139.547766699994	0.100010099995416
123708	100	153	stimuli/nonmovArt/bench/nma_bench09.jpg          	1	2	1	nma_bench09.jpg      	nonmovArt	4	bench     	1	bench09     	18	not_alive	0	still	0	artefact	0	n	0	0        	 	0.0	0	139.597759700002	139.697755800007	0.0999961000052281
123858	100	154	stimuli/movArt/boat/ma_boat09.jpg                	1	2	1	ma_boat09.jpg        	movArt   	2	boat      	2	boat09      	28	not_alive	0	moves	1	artefact	0	n	0	0        	 	0.0	0	139.747767499997	139.847758500007	0.0999910000100499
124008	100	155	stimuli/animals/cat/animal_cat10.jpg             	1	2	1	animal_cat10.jpg     	animals  	0	cat       	6	cat10       	69	alive    	1	moves	1	natural 	1	n	0	0        	 	0.0	0	139.897769899995	139.997763499996	0.0999936000007438
124158	100	156	stimuli/animals2/tiger/animal_tiger05.jpg        	1	2	1	animal_tiger05.jpg   	animals2 	1	tiger     	33	tiger05     	334	alive    	1	moves	1	natural 	1	n	0	0        	 	0.0	0	140.047774899998	140.147767500006	0.0999926000076812
124308	100	157	stimuli/movNat/hotspring/mn_hotspring06.jpg      	1	2	1	mn_hotspring06.jpg   	movNat   	3	hotspring 	21	hotspring06 	215	not_alive	0	moves	1	natural 	1	n	0	0        	 	0.0	0	140.197781299998	140.297799799999	0.10001850000117
124458	100	158	stimuli/animals2/lemur/animal_lemur06.jpg        	1	2	1	animal_lemur06.jpg   	animals2 	1	lemur     	23	lemur06     	235	alive    	1	moves	1	natural 	1	n	0	0        	 	0.0	0	140.347781500008	140.447775499997	0.0999939999892376
124608	100	159	stimuli/movArt/bus/ma_bus10.jpg                  	1	2	1	ma_bus10.jpg         	movArt   	2	bus       	3	bus10       	39	not_alive	0	moves	1	artefact	0	n	0	0        	 	0.0	0	140.497785	140.597777700008	0.0999927000084426
126908	100	160	stimuli/nonmovNat/rock/nmn_rock09.jpg            	1	3	1	nmn_rock09.jpg       	nonmovNat	5	rock      	30	rock09      	308	not_alive	0	still	0	natural 	1	n	0	0        	 	0.0	0	142.797847900001	142.897842499995	0.0999945999938063
127058	100	161	stimuli/movArt/car/ma_car02.jpg                  	1	3	1	ma_car02.jpg         	movArt   	2	car       	5	car02       	51	not_alive	0	moves	1	artefact	0	n	0	0        	 	0.0	0	142.947853000005	143.047850899995	0.0999978999898303
127208	100	162	stimuli/movArt/bus/ma_bus02.jpg                  	1	3	1	ma_bus02.jpg         	movArt   	2	bus       	3	bus02       	31	not_alive	0	moves	1	artefact	0	n	0	0        	 	0.0	0	143.097854499996	143.197863699999	0.100009200003115
127358	100	163	stimuli/animals2/tiger/animal_tiger04.jpg        	1	3	1	animal_tiger04.jpg   	animals2 	1	tiger     	33	tiger04     	333	alive    	1	moves	1	natural 	1	n	0	0        	 	0.0	0	143.247867600003	143.347853900006	0.0999863000033656
127508	100	164	stimuli/movArt/train/ma_train01.jpg              	1	3	1	ma_train01.jpg       	movArt   	2	train     	34	train01     	340	not_alive	0	moves	1	artefact	0	n	0	0        	 	0.0	0	143.397873399997	143.497868599996	0.099995199998375
127658	100	165	stimuli/plant/grass/plant_grass09.jpg            	1	3	1	plant_grass09.jpg    	plant    	6	grass     	17	grass09     	178	alive    	1	still	0	natural 	1	n	0	0        	 	0.0	0	143.547893700001	143.6478622	0.0999684999987949
127808	100	166	stimuli/plant/vine/plant_vine01.jpg              	1	3	1	plant_vine01.jpg     	plant    	6	vine      	36	vine01      	360	alive    	1	still	0	natural 	1	n	0	0        	 	0.0	0	143.697871600001	143.797865800007	0.0999942000053124
127958	100	167	stimuli/movArt/car/ma_car04.jpg                  	1	3	1	ma_car04.jpg         	movArt   	2	car       	5	car04       	53	not_alive	0	moves	1	artefact	0	n	0	0        	 	0.0	0	143.847874900006	143.947868600007	0.0999937000015052
128108	100	168	stimuli/movNat/river/mn_river06.jpg              	1	3	1	mn_river06.jpg       	movNat   	3	river     	29	river06     	295	not_alive	0	moves	1	natural 	1	n	0	0        	 	0.0	0	143.997879899995	144.097871300008	0.0999914000130957
128258	100	169	stimuli/animals/dolphin/animal_dolphin10.jpg     	1	3	1	animal_dolphin10.jpg 	animals  	0	dolphin   	12	dolphin10   	129	alive    	1	moves	1	natural 	1	n	0	0        	 	0.0	0	144.147898399999	144.247877400005	0.0999790000059875
128408	100	170	stimuli/animals/cat/animal_cat06.jpg             	1	3	1	animal_cat06.jpg     	animals  	0	cat       	6	cat06       	65	alive    	1	moves	1	natural 	1	n	0	0        	 	0.0	0	144.297914700001	144.397881199999	0.0999664999981178
128558	100	171	stimuli/animals/dolphin/animal_dolphin02.jpg     	1	3	1	animal_dolphin02.jpg 	animals  	0	dolphin   	12	dolphin02   	121	alive    	1	moves	1	natural 	1	n	0	0        	 	0.0	0	144.447893100005	144.547898100005	0.100005000000237
128708	100	172	stimuli/movArt/helicopter/ma_helicopter01.jpg    	1	3	1	ma_helicopter01.jpg  	movArt   	2	helicopter	19	helicopter01	190	not_alive	0	moves	1	artefact	0	n	0	0        	 	0.0	0	144.597894200007	144.697887999995	0.0999937999877147
128858	100	173	stimuli/movNat/waterfall/mn_waterfall09.jpg      	1	3	1	mn_waterfall09.jpg   	movNat   	3	waterfall 	37	waterfall09 	378	not_alive	0	moves	1	natural 	1	n	0	0        	 	0.0	0	144.747899099995	144.847893300001	0.0999942000053124
129008	100	174	stimuli/plant/grass/plant_grass08.jpg            	1	3	1	plant_grass08.jpg    	plant    	6	grass     	17	grass08     	177	alive    	1	still	0	natural 	1	n	0	0        	 	0.0	0	144.897909699997	144.997899199996	0.0999894999986282
129158	100	175	stimuli/plant2/palmtree/plant_palmtree03.jpg     	1	3	1	plant_palmtree03.jpg 	plant2   	7	palmtree  	27	palmtree03  	272	alive    	1	still	0	natural 	1	n	0	0        	 	0.0	0	145.047918199998	145.147901000004	0.0999828000058187
129308	100	176	stimuli/plant2/moss/plant_moss09.jpg             	1	3	1	plant_moss09.jpg     	plant2   	7	moss      	25	moss09      	258	alive    	1	still	0	natural 	1	n	0	0        	 	0.0	0	145.197915099998	145.297909900008	0.0999948000098812
129458	100	177	stimuli/plant/tree/plant_tree06.jpg              	1	3	1	plant_tree06.jpg     	plant    	6	tree      	35	tree06      	355	alive    	1	still	0	natural 	1	n	0	0        	 	0.0	0	145.3479143	145.447920899998	0.100006599997869
129608	100	178	stimuli/plant2/palmtree/plant_palmtree10.jpg     	1	3	1	plant_palmtree10.jpg 	plant2   	7	palmtree  	27	palmtree10  	279	alive    	1	still	0	natural 	1	n	0	0        	 	0.0	0	145.497919700007	145.597911499994	0.0999917999870377
129758	100	179	stimuli/plant/cactus/plant_cactus04.jpg          	1	3	1	plant_cactus04.jpg   	plant    	6	cactus    	4	cactus04    	43	alive    	1	still	0	natural 	1	n	0	0        	 	0.0	0	145.647923500001	145.747914499996	0.099990999995498
129908	100	180	stimuli/movArt/car/ma_car06.jpg                  	1	3	1	ma_car06.jpg         	movArt   	2	car       	5	car06       	55	not_alive	0	moves	1	artefact	0	n	0	0        	 	0.0	0	145.797927299995	145.8979291	0.100001800004975
130058	100	181	stimuli/movArt/helicopter/ma_helicopter09.jpg    	1	3	1	ma_helicopter09.jpg  	movArt   	2	helicopter	19	helicopter09	198	not_alive	0	moves	1	artefact	0	n	0	0        	 	0.0	0	145.947930199996	146.047923799997	0.0999936000007438
130208	100	182	stimuli/animals2/whale/animal_whale05.jpg        	1	3	1	animal_whale05.jpg   	animals2 	1	whale     	39	whale05     	394	alive    	1	moves	1	natural 	1	n	0	0        	 	0.0	0	146.097936399994	146.197929500006	0.0999931000114884
130358	100	183	stimuli/animals/eagle/animal_eagle06.jpg         	1	3	1	animal_eagle06.jpg   	animals  	0	eagle     	13	eagle06     	135	alive    	1	moves	1	natural 	1	n	0	0        	 	0.0	0	146.247939000008	146.347943400004	0.100004399995669
130508	100	184	stimuli/plant2/lemontree/plant_lemontree01.jpg   	1	3	1	plant_lemontree01.jpg	plant2   	7	lemontree 	22	lemontree01 	220	alive    	1	still	0	natural 	1	n	0	0        	 	0.0	0	146.397956800007	146.497934600004	0.0999777999968501
130658	100	185	stimuli/plant/vine/plant_vine02.jpg              	1	3	1	plant_vine02.jpg     	plant    	6	vine      	36	vine02      	361	alive    	1	still	0	natural 	1	n	0	0        	 	0.0	0	146.547960600001	146.6479406	0.09997999999905
130808	100	186	stimuli/movNat/fire/mn_fire06.jpg                	1	3	1	mn_fire06.jpg        	movNat   	3	fire      	15	fire06      	155	not_alive	0	moves	1	natural 	1	n	0	0        	 	0.0	0	146.697951599999	146.797946699997	0.0999950999976136
130958	100	187	stimuli/plant2/moss/plant_moss04.jpg             	1	3	1	plant_moss04.jpg     	plant2   	7	moss      	25	moss04      	253	alive    	1	still	0	natural 	1	n	0	0        	 	0.0	0	146.847970300005	146.947948400004	0.0999780999991344
131108	100	188	stimuli/animals/horse/animal_horse05.jpg         	1	3	1	animal_horse05.jpg   	animals  	0	horse     	20	horse05     	204	alive    	1	moves	1	natural 	1	n	1	0        	 	0.0	0	146.997961100002	147.097950800002	0.0999897000001511
131258	100	189	stimuli/plant2/lemontree/plant_lemontree03.jpg   	1	3	1	plant_lemontree03.jpg	plant2   	7	lemontree 	22	lemontree03 	222	alive    	1	still	0	natural 	1	n	0	0        	 	0.0	0	147.147963299998	147.247974700003	0.100011400005314
131408	100	190	stimuli/plant2/clover/plant_clover06.jpg         	1	3	1	plant_clover06.jpg   	plant2   	7	clover    	9	clover06    	95	alive    	1	still	0	natural 	1	n	1	1        	f	-0.007872900008806	1	147.297968800005	147.397963299998	0.0999944999930449
131558	100	191	stimuli/movNat/waves/mn_waves10.jpg              	1	3	1	mn_waves10.jpg       	movNat   	3	waves     	38	waves10     	389	not_alive	0	moves	1	natural 	1	n	0	0        	 	0.0	0	147.447969500005	147.547965300007	0.0999958000029437
131708	100	192	stimuli/movArt/boat/ma_boat02.jpg                	1	3	1	ma_boat02.jpg        	movArt   	2	boat      	2	boat02      	21	not_alive	0	moves	1	artefact	0	n	0	0        	 	0.0	0	147.597975099998	147.697967500004	0.0999924000061583
131858	100	193	stimuli/plant/grass/plant_grass03.jpg            	1	3	1	plant_grass03.jpg    	plant    	6	grass     	17	grass03     	172	alive    	1	still	0	natural 	1	n	0	1        	f	0.541970999998739	1	147.747980200002	147.847972899996	0.0999926999938907
132008	100	194	stimuli/movNat/waterfall/mn_waterfall02.jpg      	1	3	1	mn_waterfall02.jpg   	movNat   	3	waterfall 	37	waterfall02 	371	not_alive	0	moves	1	natural 	1	n	0	0        	 	0.0	0	147.897981200003	147.9980068	0.100025599997025
132158	100	195	stimuli/animals2/whale/animal_whale04.jpg        	1	3	1	animal_whale04.jpg   	animals2 	1	whale     	39	whale04     	393	alive    	1	moves	1	natural 	1	n	0	0        	 	0.0	0	148.047987400001	148.147982399998	0.0999949999968521
132308	100	196	stimuli/nonmovArt/mug/nma_mug04.jpg              	1	3	1	nma_mug04.jpg        	nonmovArt	4	mug       	26	mug04       	263	not_alive	0	still	0	artefact	0	n	0	0        	 	0.0	0	148.197991699999	148.297983600001	0.099991900002351
132458	100	197	stimuli/nonmovNat/crystal/nmn_crystal08.jpg      	1	3	1	nmn_crystal08.jpg    	nonmovNat	5	crystal   	10	crystal08   	107	not_alive	0	still	0	natural 	1	n	0	0        	 	0.0	0	148.347995200005	148.447986800005	0.0999916000000667
132608	100	198	stimuli/animals2/pigeon/animal_pigeon08.jpg      	1	3	1	animal_pigeon08.jpg  	animals2 	1	pigeon    	28	pigeon08    	287	alive    	1	moves	1	natural 	1	n	0	0        	 	0.0	0	148.497998599996	148.598010400005	0.10001180000836
132758	100	199	stimuli/animals/horse/animal_horse03.jpg         	1	3	1	animal_horse03.jpg   	animals  	0	horse     	20	horse03     	202	alive    	1	moves	1	natural 	1	n	0	0        	 	0.0	0	148.648002600006	148.748011799995	0.100009199988563
132908	100	200	stimuli/nonmovNat/shell/nmn_shell01.jpg          	1	3	1	nmn_shell01.jpg      	nonmovNat	5	shell     	32	shell01     	320	not_alive	0	still	0	natural 	1	n	1	0        	 	0.0	0	148.798006700003	148.898003399998	0.0999966999952448
133058	100	201	stimuli/movArt/train/ma_train04.jpg              	1	3	1	ma_train04.jpg       	movArt   	2	train     	34	train04     	343	not_alive	0	moves	1	artefact	0	n	0	0        	 	0.0	0	148.948009600004	149.048018000001	0.100008399997023
133208	100	202	stimuli/movArt/helicopter/ma_helicopter08.jpg    	1	3	1	ma_helicopter08.jpg  	movArt   	2	helicopter	19	helicopter08	197	not_alive	0	moves	1	artefact	0	n	0	1        	f	0.391993700002786	1	149.098031100002	149.198007400002	0.0999762999999803
133358	100	203	stimuli/animals/cat/animal_cat02.jpg             	1	3	1	animal_cat02.jpg     	animals  	0	cat       	6	cat02       	61	alive    	1	moves	1	natural 	1	n	0	0        	 	0.0	0	149.248018600003	149.348018000004	0.0999994000012521
133508	100	204	stimuli/nonmovArt/lock/nma_lock03.jpg            	1	3	1	nma_lock03.jpg       	nonmovArt	4	lock      	24	lock03      	242	not_alive	0	still	0	artefact	0	n	0	0        	 	0.0	0	149.398025999995	149.498022400003	0.0999964000075124
133658	100	205	stimuli/animals2/pigeon/animal_pigeon04.jpg      	1	3	1	animal_pigeon04.jpg  	animals2 	1	pigeon    	28	pigeon04    	283	alive    	1	moves	1	natural 	1	n	0	0        	 	0.0	0	149.548028300007	149.648020499997	0.0999921999900835
133808	100	206	stimuli/plant/vine/plant_vine08.jpg              	1	3	1	plant_vine08.jpg     	plant    	6	vine      	36	vine08      	367	alive    	1	still	0	natural 	1	n	0	0        	 	0.0	0	149.698033399996	149.798022999996	0.0999895999993896
133958	100	207	stimuli/plant2/fern/plant_fern04.jpg             	1	3	1	plant_fern04.jpg     	plant2   	7	fern      	14	fern04      	143	alive    	1	still	0	natural 	1	n	0	0        	 	0.0	0	149.848077600007	149.948028600003	0.0999509999965085
134108	100	208	stimuli/animals2/bee/animal_bee08.jpg            	1	3	1	animal_bee08.jpg     	animals2 	1	bee       	0	bee08       	7	alive    	1	moves	1	natural 	1	n	0	0        	 	0.0	0	149.998041500003	150.0980327	0.0999911999970209
134258	100	209	stimuli/movNat/fire/mn_fire05.jpg                	1	3	1	mn_fire05.jpg        	movNat   	3	fire      	15	fire05      	154	not_alive	0	moves	1	natural 	1	n	0	0        	 	0.0	0	150.148042700006	150.248049300004	0.100006599997869
134408	100	210	stimuli/movArt/train/ma_train10.jpg              	1	3	1	ma_train10.jpg       	movArt   	2	train     	34	train10     	349	not_alive	0	moves	1	artefact	0	n	0	0        	 	0.0	0	150.298046199998	150.398038800005	0.0999926000076812
134558	100	211	stimuli/nonmovNat/sand/nmn_sand07.jpg            	1	3	1	nmn_sand07.jpg       	nonmovNat	5	sand      	31	sand07      	316	not_alive	0	still	0	natural 	1	n	0	0        	 	0.0	0	150.448064700002	150.548044299998	0.0999795999960042
134708	100	212	stimuli/animals/dog/animal_dog03.jpg             	1	3	1	animal_dog03.jpg     	animals  	0	dog       	11	dog03       	112	alive    	1	moves	1	natural 	1	n	0	0        	 	0.0	0	150.598074599999	150.698048599996	0.0999739999970188
134858	100	213	stimuli/nonmovArt/headphones/nma_headphones09.jpg	1	3	1	nma_headphones09.jpg 	nonmovArt	4	headphones	18	headphones09	188	not_alive	0	still	0	artefact	0	n	0	0        	 	0.0	0	150.748059399994	150.848064499995	0.100005100000999
135008	100	214	stimuli/animals/dog/animal_dog04.jpg             	1	3	1	animal_dog04.jpg     	animals  	0	dog       	11	dog04       	113	alive    	1	moves	1	natural 	1	n	0	0        	 	0.0	0	150.898074099998	150.998060800004	0.0999867000064114
135158	100	215	stimuli/nonmovArt/mug/nma_mug06.jpg              	1	3	1	nma_mug06.jpg        	nonmovArt	4	mug       	26	mug06       	265	not_alive	0	still	0	artefact	0	n	0	0        	 	0.0	0	151.048069299999	151.148061300002	0.0999920000031125
135308	100	216	stimuli/plant2/moss/plant_moss01.jpg             	1	3	1	plant_moss01.jpg     	plant2   	7	moss      	25	moss01      	250	alive    	1	still	0	natural 	1	n	0	0        	 	0.0	0	151.198073499996	151.2980656	0.0999921000038739
135458	100	217	stimuli/nonmovArt/clothespeg/nma_clothespeg05.jpg	1	3	1	nma_clothespeg05.jpg 	nonmovArt	4	clothespeg	8	clothespeg05	84	not_alive	0	still	0	artefact	0	n	0	0        	 	0.0	0	151.348081899996	151.448069200007	0.0999873000109801
135608	100	218	stimuli/animals2/lemur/animal_lemur10.jpg        	1	3	1	animal_lemur10.jpg   	animals2 	1	lemur     	23	lemur10     	239	alive    	1	moves	1	natural 	1	n	0	0        	 	0.0	0	151.498080499994	151.598075200003	0.0999947000091197
135758	100	219	stimuli/movNat/river/mn_river05.jpg              	1	3	1	mn_river05.jpg       	movNat   	3	river     	29	river05     	294	not_alive	0	moves	1	natural 	1	n	0	0        	 	0.0	0	151.648080500003	151.7480774	0.0999968999967678
135908	100	220	stimuli/animals2/lemur/animal_lemur02.jpg        	1	3	1	animal_lemur02.jpg   	animals2 	1	lemur     	23	lemur02     	231	alive    	1	moves	1	natural 	1	n	0	0        	 	0.0	0	151.798087600007	151.898079999999	0.0999923999916064
136058	100	221	stimuli/nonmovArt/headphones/nma_headphones10.jpg	1	3	1	nma_headphones10.jpg 	nonmovArt	4	headphones	18	headphones10	189	not_alive	0	still	0	artefact	0	n	0	0        	 	0.0	0	151.948096499997	152.048083400005	0.0999869000079343
136208	100	222	stimuli/animals2/bee/animal_bee10.jpg            	1	3	1	animal_bee10.jpg     	animals2 	1	bee       	0	bee10       	9	alive    	1	moves	1	natural 	1	n	1	0        	 	0.0	0	152.098096100002	152.198089800004	0.0999937000015052
136358	100	223	stimuli/animals2/tiger/animal_tiger07.jpg        	1	3	1	animal_tiger07.jpg   	animals2 	1	tiger     	33	tiger07     	336	alive    	1	moves	1	natural 	1	n	0	0        	 	0.0	0	152.248097300006	152.348092400003	0.0999950999976136
136508	100	224	stimuli/nonmovArt/headphones/nma_headphones09.jpg	1	3	1	nma_headphones09.jpg 	nonmovArt	4	headphones	18	headphones09	188	not_alive	0	still	0	artefact	0	n	0	1        	f	0.391980200001854	1	152.398102699997	152.498097000003	0.0999943000060739
136658	100	225	stimuli/plant/tree/plant_tree06.jpg              	1	3	1	plant_tree06.jpg     	plant    	6	tree      	35	tree06      	355	alive    	1	still	0	natural 	1	n	0	0        	 	0.0	0	152.548108200004	152.648101600003	0.0999933999992209
136808	100	226	stimuli/nonmovArt/clothespeg/nma_clothespeg03.jpg	1	3	1	nma_clothespeg03.jpg 	nonmovArt	4	clothespeg	8	clothespeg03	82	not_alive	0	still	0	artefact	0	n	0	0        	 	0.0	0	152.698110800004	152.798112100005	0.100001300001168
136958	100	227	stimuli/animals2/whale/animal_whale01.jpg        	1	3	1	animal_whale01.jpg   	animals2 	1	whale     	39	whale01     	390	alive    	1	moves	1	natural 	1	n	0	0        	 	0.0	0	152.848113800006	152.948107500008	0.0999937000015052
137108	100	228	stimuli/nonmovNat/crystal/nmn_crystal02.jpg      	1	3	1	nmn_crystal02.jpg    	nonmovNat	5	crystal   	10	crystal02   	101	not_alive	0	still	0	natural 	1	n	0	0        	 	0.0	0	152.998120200005	153.098115500004	0.0999952999991365
137258	100	229	stimuli/plant2/fern/plant_fern02.jpg             	1	3	1	plant_fern02.jpg     	plant2   	7	fern      	14	fern02      	141	alive    	1	still	0	natural 	1	n	0	0        	 	0.0	0	153.148123299994	153.248117700001	0.0999944000068354
137408	100	230	stimuli/animals/eagle/animal_eagle02.jpg         	1	3	1	animal_eagle02.jpg   	animals  	0	eagle     	13	eagle02     	131	alive    	1	moves	1	natural 	1	n	0	0        	 	0.0	0	153.298127999995	153.398121200007	0.0999932000122499
137558	100	231	stimuli/nonmovNat/shell/nmn_shell08.jpg          	1	3	1	nmn_shell08.jpg      	nonmovNat	5	shell     	32	shell08     	327	not_alive	0	still	0	natural 	1	n	0	0        	 	0.0	0	153.4481314	153.548152999996	0.100021599995671
137708	100	232	stimuli/nonmovNat/rock/nmn_rock05.jpg            	1	3	1	nmn_rock05.jpg       	nonmovNat	5	rock      	30	rock05      	304	not_alive	0	still	0	natural 	1	n	0	0        	 	0.0	0	153.598135099994	153.698131199999	0.0999961000052281
137858	100	233	stimuli/plant/cactus/plant_cactus03.jpg          	1	3	1	plant_cactus03.jpg   	plant    	6	cactus    	4	cactus03    	42	alive    	1	still	0	natural 	1	n	0	0        	 	0.0	0	153.748139200005	153.848132900006	0.0999937000015052
138008	100	234	stimuli/nonmovNat/cliff/nmn_cliff08.jpg          	1	3	1	nmn_cliff08.jpg      	nonmovNat	5	cliff     	7	cliff08     	77	not_alive	0	still	0	natural 	1	n	0	0        	 	0.0	0	153.898151300004	153.998135400005	0.0999841000011656
138158	100	235	stimuli/nonmovNat/shell/nmn_shell07.jpg          	1	3	1	nmn_shell07.jpg      	nonmovNat	5	shell     	32	shell07     	326	not_alive	0	still	0	natural 	1	n	0	0        	 	0.0	0	154.048148200003	154.1481546	0.100006399996346
138308	100	236	stimuli/animals/horse/animal_horse05.jpg         	1	3	1	animal_horse05.jpg   	animals  	0	horse     	20	horse05     	204	alive    	1	moves	1	natural 	1	n	0	0        	 	0.0	0	154.1981505	154.298172900002	0.100022400001762
138458	100	237	stimuli/nonmovNat/rock/nmn_rock01.jpg            	1	3	1	nmn_rock01.jpg       	nonmovNat	5	rock      	30	rock01      	300	not_alive	0	still	0	natural 	1	n	0	0        	 	0.0	0	154.348154299994	154.448147899995	0.0999936000007438
138608	100	238	stimuli/movNat/fire/mn_fire03.jpg                	1	3	1	mn_fire03.jpg        	movNat   	3	fire      	15	fire03      	152	not_alive	0	moves	1	natural 	1	n	0	0        	 	0.0	0	154.498158300004	154.598151900005	0.0999936000007438
138758	100	239	stimuli/movNat/waves/mn_waves08.jpg              	1	3	1	mn_waves08.jpg       	movNat   	3	waves     	38	waves08     	387	not_alive	0	moves	1	natural 	1	n	0	0        	 	0.0	0	154.648162500002	154.748156000001	0.0999934999999823
141475	100	240	stimuli/nonmovArt/bench/nma_bench01.jpg          	1	4	1	nma_bench01.jpg      	nonmovArt	4	bench     	1	bench01     	10	not_alive	0	still	0	artefact	0	n	0	0        	 	0.0	0	157.364920699998	157.464899700004	0.0999790000059875
141625	100	241	stimuli/animals2/tiger/animal_tiger07.jpg        	1	4	1	animal_tiger07.jpg   	animals2 	1	tiger     	33	tiger07     	336	alive    	1	moves	1	natural 	1	n	0	0        	 	0.0	0	157.514918600005	157.614902600006	0.0999840000004042
141775	100	242	stimuli/animals/dolphin/animal_dolphin09.jpg     	1	4	1	animal_dolphin09.jpg 	animals  	0	dolphin   	12	dolphin09   	128	alive    	1	moves	1	natural 	1	n	0	0        	 	0.0	0	157.664910299995	157.764901999995	0.0999917000008281
141925	100	243	stimuli/movNat/hotspring/mn_hotspring09.jpg      	1	4	1	mn_hotspring09.jpg   	movNat   	3	hotspring 	21	hotspring09 	218	not_alive	0	moves	1	natural 	1	n	0	0        	 	0.0	0	157.8149137	157.914908499995	0.0999947999953292
142075	100	244	stimuli/animals/dog/animal_dog06.jpg             	1	4	1	animal_dog06.jpg     	animals  	0	dog       	11	dog06       	115	alive    	1	moves	1	natural 	1	n	0	0        	 	0.0	0	157.964919799997	158.064926200008	0.100006400010898
142225	100	245	stimuli/animals/horse/animal_horse06.jpg         	1	4	1	animal_horse06.jpg   	animals  	0	horse     	20	horse06     	205	alive    	1	moves	1	natural 	1	n	0	0        	 	0.0	0	158.114926800001	158.214915300006	0.0999885000055656
142375	100	246	stimuli/plant2/fern/plant_fern07.jpg             	1	4	1	plant_fern07.jpg     	plant2   	7	fern      	14	fern07      	146	alive    	1	still	0	natural 	1	n	0	0        	 	0.0	0	158.264928200006	158.3649191	0.0999908999947365
142525	100	247	stimuli/animals/dolphin/animal_dolphin07.jpg     	1	4	1	animal_dolphin07.jpg 	animals  	0	dolphin   	12	dolphin07   	126	alive    	1	moves	1	natural 	1	n	0	0        	 	0.0	0	158.414930700004	158.514923099996	0.0999923999916064
142675	100	248	stimuli/plant2/lemontree/plant_lemontree02.jpg   	1	4	1	plant_lemontree02.jpg	plant2   	7	lemontree 	22	lemontree02 	221	alive    	1	still	0	natural 	1	n	0	0        	 	0.0	0	158.564933400005	158.664931000007	0.0999976000020979
142825	100	249	stimuli/nonmovArt/clothespeg/nma_clothespeg04.jpg	1	4	1	nma_clothespeg04.jpg 	nonmovArt	4	clothespeg	8	clothespeg04	83	not_alive	0	still	0	artefact	0	n	0	0        	 	0.0	0	158.714951400005	158.814935600007	0.0999842000019271
142975	100	250	stimuli/movNat/waterfall/mn_waterfall01.jpg      	1	4	1	mn_waterfall01.jpg   	movNat   	3	waterfall 	37	waterfall01 	370	not_alive	0	moves	1	natural 	1	n	0	0        	 	0.0	0	158.864945199995	158.964934000003	0.0999888000078499
143125	100	251	stimuli/animals2/bee/animal_bee07.jpg            	1	4	1	animal_bee07.jpg     	animals2 	1	bee       	0	bee07       	6	alive    	1	moves	1	natural 	1	n	0	0        	 	0.0	0	159.014948800002	159.114938700004	0.099989900001674
143275	100	252	stimuli/plant2/fern/plant_fern06.jpg             	1	4	1	plant_fern06.jpg     	plant2   	7	fern      	14	fern06      	145	alive    	1	still	0	natural 	1	n	0	0        	 	0.0	0	159.164950399994	159.264945400006	0.099995000011404
143425	100	253	stimuli/nonmovNat/rock/nmn_rock07.jpg            	1	4	1	nmn_rock07.jpg       	nonmovNat	5	rock      	30	rock07      	306	not_alive	0	still	0	natural 	1	n	1	0        	 	0.0	0	159.314957800001	159.4149511	0.0999932999984594
143575	100	254	stimuli/movNat/hotspring/mn_hotspring05.jpg      	1	4	1	mn_hotspring05.jpg   	movNat   	3	hotspring 	21	hotspring05 	214	not_alive	0	moves	1	natural 	1	n	0	0        	 	0.0	0	159.464970800007	159.564970299994	0.0999994999874616
143725	100	255	stimuli/animals2/whale/animal_whale02.jpg        	1	4	1	animal_whale02.jpg   	animals2 	1	whale     	39	whale02     	391	alive    	1	moves	1	natural 	1	n	1	1        	f	-0.0078763000055914	1	159.614962100008	159.714956900003	0.0999947999953292
143875	100	256	stimuli/plant2/palmtree/plant_palmtree07.jpg     	1	4	1	plant_palmtree07.jpg 	plant2   	7	palmtree  	27	palmtree07  	276	alive    	1	still	0	natural 	1	n	0	0        	 	0.0	0	159.764968100004	159.864958399994	0.0999902999901678
144025	100	257	stimuli/animals2/bee/animal_bee04.jpg            	1	4	1	animal_bee04.jpg     	animals2 	1	bee       	0	bee04       	3	alive    	1	moves	1	natural 	1	n	0	0        	 	0.0	0	159.914970099999	160.014964000002	0.0999939000030281
144175	100	258	stimuli/nonmovArt/clothespeg/nma_clothespeg08.jpg	1	4	1	nma_clothespeg08.jpg 	nonmovArt	4	clothespeg	8	clothespeg08	87	not_alive	0	still	0	artefact	0	n	0	1        	f	0.453527599995141	1	160.064973800007	160.164971499995	0.0999976999883074
144325	100	259	stimuli/plant/flower/plant_flower09.jpg          	1	4	1	plant_flower09.jpg   	plant    	6	flower    	16	flower09    	168	alive    	1	still	0	natural 	1	n	0	0        	 	0.0	0	160.214979700002	160.3149997	0.10001999999804
144475	100	260	stimuli/movNat/hotspring/mn_hotspring04.jpg      	1	4	1	mn_hotspring04.jpg   	movNat   	3	hotspring 	21	hotspring04 	213	not_alive	0	moves	1	natural 	1	n	0	0        	 	0.0	0	160.364982900006	160.464975499999	0.0999925999931293
144625	100	261	stimuli/nonmovNat/cliff/nmn_cliff07.jpg          	1	4	1	nmn_cliff07.jpg      	nonmovNat	5	cliff     	7	cliff07     	76	not_alive	0	still	0	natural 	1	n	0	0        	 	0.0	0	160.514988700001	160.614980099999	0.0999913999985438
144775	100	262	stimuli/movNat/waves/mn_waves06.jpg              	1	4	1	mn_waves06.jpg       	movNat   	3	waves     	38	waves06     	385	not_alive	0	moves	1	natural 	1	n	0	0        	 	0.0	0	160.664989299999	160.764984099995	0.0999947999953292
144925	100	263	stimuli/nonmovNat/rock/nmn_rock03.jpg            	1	4	1	nmn_rock03.jpg       	nonmovNat	5	rock      	30	rock03      	302	not_alive	0	still	0	natural 	1	n	0	0        	 	0.0	0	160.814993599997	160.915003700007	0.100010100009968
145075	100	264	stimuli/plant/grass/plant_grass02.jpg            	1	4	1	plant_grass02.jpg    	plant    	6	grass     	17	grass02     	171	alive    	1	still	0	natural 	1	n	0	0        	 	0.0	0	160.964997500007	161.065006499994	0.10000899998704
145225	100	265	stimuli/animals/dog/animal_dog01.jpg             	1	4	1	animal_dog01.jpg     	animals  	0	dog       	11	dog01       	110	alive    	1	moves	1	natural 	1	n	0	0        	 	0.0	0	161.115000999998	161.214996199997	0.099995199998375
145375	100	266	stimuli/animals2/pigeon/animal_pigeon01.jpg      	1	4	1	animal_pigeon01.jpg  	animals2 	1	pigeon    	28	pigeon01    	280	alive    	1	moves	1	natural 	1	n	0	0        	 	0.0	0	161.265018399994	161.3649993	0.0999809000059031
145525	100	267	stimuli/plant/grass/plant_grass05.jpg            	1	4	1	plant_grass05.jpg    	plant    	6	grass     	17	grass05     	174	alive    	1	still	0	natural 	1	n	0	0        	 	0.0	0	161.415012600002	161.515006600006	0.0999940000037896
145675	100	268	stimuli/nonmovArt/mug/nma_mug02.jpg              	1	4	1	nma_mug02.jpg        	nonmovArt	4	mug       	26	mug02       	261	not_alive	0	still	0	artefact	0	n	0	0        	 	0.0	0	161.565017000001	161.665011000005	0.0999940000037896
145825	100	269	stimuli/movArt/boat/ma_boat09.jpg                	1	4	1	ma_boat09.jpg        	movArt   	2	boat      	2	boat09      	28	not_alive	0	moves	1	artefact	0	n	0	0        	 	0.0	0	161.715016600006	161.815013600004	0.0999969999975292
145975	100	270	stimuli/nonmovNat/cliff/nmn_cliff07.jpg          	1	4	1	nmn_cliff07.jpg      	nonmovNat	5	cliff     	7	cliff07     	76	not_alive	0	still	0	natural 	1	n	0	0        	 	0.0	0	161.865024800005	161.965014800007	0.0999900000024354
146125	100	271	stimuli/movArt/bus/ma_bus08.jpg                  	1	4	1	ma_bus08.jpg         	movArt   	2	bus       	3	bus08       	37	not_alive	0	moves	1	artefact	0	n	0	0        	 	0.0	0	162.015027600006	162.115021000005	0.0999933999992209
146275	100	272	stimuli/movNat/river/mn_river06.jpg              	1	4	1	mn_river06.jpg       	movNat   	3	river     	29	river06     	295	not_alive	0	moves	1	natural 	1	n	0	0        	 	0.0	0	162.165068500006	162.265024099994	0.0999555999878794
146425	100	273	stimuli/animals/eagle/animal_eagle06.jpg         	1	4	1	animal_eagle06.jpg   	animals  	0	eagle     	13	eagle06     	135	alive    	1	moves	1	natural 	1	n	0	0        	 	0.0	0	162.315033000006	162.415026999995	0.0999939999892376
146575	100	274	stimuli/animals2/lemur/animal_lemur04.jpg        	1	4	1	animal_lemur04.jpg   	animals2 	1	lemur     	23	lemur04     	233	alive    	1	moves	1	natural 	1	n	0	0        	 	0.0	0	162.465040099996	162.565040000001	0.0999999000050593
146725	100	275	stimuli/nonmovArt/headphones/nma_headphones10.jpg	1	4	1	nma_headphones10.jpg 	nonmovArt	4	headphones	18	headphones10	189	not_alive	0	still	0	artefact	0	n	0	0        	 	0.0	0	162.615042899997	162.715046800004	0.100003900006413
146875	100	276	stimuli/nonmovArt/mug/nma_mug01.jpg              	1	4	1	nma_mug01.jpg        	nonmovArt	4	mug       	26	mug01       	260	not_alive	0	still	0	artefact	0	n	0	0        	 	0.0	0	162.765062000006	162.8650394	0.0999773999938043
147025	100	277	stimuli/movNat/fire/mn_fire03.jpg                	1	4	1	mn_fire03.jpg        	movNat   	3	fire      	15	fire03      	152	not_alive	0	moves	1	natural 	1	n	0	0        	 	0.0	0	162.915071299998	163.015043199994	0.0999718999955803
147175	100	278	stimuli/plant/cactus/plant_cactus04.jpg          	1	4	1	plant_cactus04.jpg   	plant    	6	cactus    	4	cactus04    	43	alive    	1	still	0	natural 	1	n	0	0        	 	0.0	0	163.065067600008	163.165056400001	0.099988799993298
147325	100	279	stimuli/plant2/lemontree/plant_lemontree03.jpg   	1	4	1	plant_lemontree03.jpg	plant2   	7	lemontree 	22	lemontree03 	222	alive    	1	still	0	natural 	1	n	1	0        	 	0.0	0	163.215058800008	163.315054100007	0.0999952999991365
147475	100	280	stimuli/animals/horse/animal_horse04.jpg         	1	4	1	animal_horse04.jpg   	animals  	0	horse     	20	horse04     	203	alive    	1	moves	1	natural 	1	n	0	0        	 	0.0	0	163.365063400008	163.465054700006	0.0999912999977823
147625	100	281	stimuli/animals2/pigeon/animal_pigeon08.jpg      	1	4	1	animal_pigeon08.jpg  	animals2 	1	pigeon    	28	pigeon08    	287	alive    	1	moves	1	natural 	1	n	0	1        	f	0.392006499998388	1	163.515066799999	163.615064199999	0.099997400000575
147775	100	282	stimuli/movNat/fire/mn_fire01.jpg                	1	4	1	mn_fire01.jpg        	movNat   	3	fire      	15	fire01      	150	not_alive	0	moves	1	natural 	1	n	0	0        	 	0.0	0	163.665077900005	163.765062999999	0.0999850999942282
147925	100	283	stimuli/plant2/moss/plant_moss06.jpg             	1	4	1	plant_moss06.jpg     	plant2   	7	moss      	25	moss06      	255	alive    	1	still	0	natural 	1	n	0	0        	 	0.0	0	163.815073799997	163.915068300004	0.0999945000075968
148075	100	284	stimuli/nonmovNat/sand/nmn_sand09.jpg            	1	4	1	nmn_sand09.jpg       	nonmovNat	5	sand      	31	sand09      	318	not_alive	0	still	0	natural 	1	n	0	0        	 	0.0	0	163.965079100002	164.065073000005	0.0999939000030281
148225	100	285	stimuli/plant2/clover/plant_clover04.jpg         	1	4	1	plant_clover04.jpg   	plant2   	7	clover    	9	clover04    	93	alive    	1	still	0	natural 	1	n	0	0        	 	0.0	0	164.115081900003	164.215076000008	0.099994100004551
148375	100	286	stimuli/plant/cactus/plant_cactus07.jpg          	1	4	1	plant_cactus07.jpg   	plant    	6	cactus    	4	cactus07    	46	alive    	1	still	0	natural 	1	n	0	0        	 	0.0	0	164.265087399996	164.365081299999	0.0999939000030281
148525	100	287	stimuli/plant/tree/plant_tree03.jpg              	1	4	1	plant_tree03.jpg     	plant    	6	tree      	35	tree03      	352	alive    	1	still	0	natural 	1	n	0	0        	 	0.0	0	164.415089000002	164.515092899994	0.100003899991862
148675	100	288	stimuli/nonmovArt/mug/nma_mug10.jpg              	1	4	1	nma_mug10.jpg        	nonmovArt	4	mug       	26	mug10       	269	not_alive	0	still	0	artefact	0	n	0	0        	 	0.0	0	164.565093700003	164.665088299997	0.0999945999938063
148825	100	289	stimuli/nonmovNat/shell/nmn_shell04.jpg          	1	4	1	nmn_shell04.jpg      	nonmovNat	5	shell     	32	shell04     	323	not_alive	0	still	0	natural 	1	n	0	0        	 	0.0	0	164.715096700005	164.815090599994	0.0999938999884762
148975	100	290	stimuli/plant2/moss/plant_moss05.jpg             	1	4	1	plant_moss05.jpg     	plant2   	7	moss      	25	moss05      	254	alive    	1	still	0	natural 	1	n	1	0        	 	0.0	0	164.865102199998	164.965095599997	0.0999933999992209
149125	100	291	stimuli/nonmovNat/cliff/nmn_cliff03.jpg          	1	4	1	nmn_cliff03.jpg      	nonmovNat	5	cliff     	7	cliff03     	72	not_alive	0	still	0	natural 	1	n	0	0        	 	0.0	0	165.015131799999	165.115118999995	0.0999871999956667
149275	100	292	stimuli/plant2/clover/plant_clover08.jpg         	1	4	1	plant_clover08.jpg   	plant2   	7	clover    	9	clover08    	97	alive    	1	still	0	natural 	1	n	0	1        	f	0.391975200007437	1	165.165110400005	165.265106100007	0.0999957000021823
149425	100	293	stimuli/nonmovNat/shell/nmn_shell02.jpg          	1	4	1	nmn_shell02.jpg      	nonmovNat	5	shell     	32	shell02     	321	not_alive	0	still	0	natural 	1	n	0	0        	 	0.0	0	165.315112199998	165.415108100002	0.0999959000037052
149575	100	294	stimuli/movNat/waterfall/mn_waterfall09.jpg      	1	4	1	mn_waterfall09.jpg   	movNat   	3	waterfall 	37	waterfall09 	378	not_alive	0	moves	1	natural 	1	n	0	0        	 	0.0	0	165.465117600004	165.565111500007	0.0999939000030281
149725	100	295	stimuli/movArt/helicopter/ma_helicopter09.jpg    	1	4	1	ma_helicopter09.jpg  	movArt   	2	helicopter	19	helicopter09	198	not_alive	0	moves	1	artefact	0	n	0	0        	 	0.0	0	165.615135700005	165.715116100007	0.0999804000020958
149875	100	296	stimuli/animals/horse/animal_horse10.jpg         	1	4	1	animal_horse10.jpg   	animals  	0	horse     	20	horse10     	209	alive    	1	moves	1	natural 	1	n	0	0        	 	0.0	0	165.765127100007	165.865148199999	0.100021099991864
150025	100	297	stimuli/movNat/river/mn_river04.jpg              	1	4	1	mn_river04.jpg       	movNat   	3	river     	29	river04     	293	not_alive	0	moves	1	natural 	1	n	0	0        	 	0.0	0	165.915130499998	166.015124900005	0.0999944000068354
150175	100	298	stimuli/nonmovNat/shell/nmn_shell03.jpg          	1	4	1	nmn_shell03.jpg      	nonmovNat	5	shell     	32	shell03     	322	not_alive	0	still	0	natural 	1	n	0	0        	 	0.0	0	166.065133800002	166.165127700006	0.0999939000030281
150325	100	299	stimuli/animals2/tiger/animal_tiger09.jpg        	1	4	1	animal_tiger09.jpg   	animals2 	1	tiger     	33	tiger09     	338	alive    	1	moves	1	natural 	1	n	0	0        	 	0.0	0	166.215152899997	166.315133299999	0.0999804000020958
150475	100	300	stimuli/animals/dolphin/animal_dolphin05.jpg     	1	4	1	animal_dolphin05.jpg 	animals  	0	dolphin   	12	dolphin05   	124	alive    	1	moves	1	natural 	1	n	0	0        	 	0.0	0	166.365140499998	166.465150799995	0.100010299996939
150625	100	301	stimuli/plant/vine/plant_vine10.jpg              	1	4	1	plant_vine10.jpg     	plant    	6	vine      	36	vine10      	369	alive    	1	still	0	natural 	1	n	0	0        	 	0.0	0	166.515159100003	166.615160000001	0.100000899998122
150775	100	302	stimuli/plant/vine/plant_vine04.jpg              	1	4	1	plant_vine04.jpg     	plant    	6	vine      	36	vine04      	363	alive    	1	still	0	natural 	1	n	0	0        	 	0.0	0	166.665149000008	166.765143900004	0.0999948999960907
150925	100	303	stimuli/movArt/car/ma_car01.jpg                  	1	4	1	ma_car01.jpg         	movArt   	2	car       	5	car01       	50	not_alive	0	moves	1	artefact	0	n	0	0        	 	0.0	0	166.815170700007	166.915148400003	0.0999776999960886
151075	100	304	stimuli/movArt/train/ma_train09.jpg              	1	4	1	ma_train09.jpg       	movArt   	2	train     	34	train09     	348	not_alive	0	moves	1	artefact	0	n	0	0        	 	0.0	0	166.965168700001	167.065152199997	0.099983499996597
151225	100	305	stimuli/nonmovNat/crystal/nmn_crystal06.jpg      	1	4	1	nmn_crystal06.jpg    	nonmovNat	5	crystal   	10	crystal06   	105	not_alive	0	still	0	natural 	1	n	0	0        	 	0.0	0	167.115164799994	167.215162299995	0.0999975000013364
151375	100	306	stimuli/movArt/boat/ma_boat08.jpg                	1	4	1	ma_boat08.jpg        	movArt   	2	boat      	2	boat08      	27	not_alive	0	moves	1	artefact	0	n	0	0        	 	0.0	0	167.265168099999	167.365172300008	0.100004200008698
151525	100	307	stimuli/movNat/waterfall/mn_waterfall05.jpg      	1	4	1	mn_waterfall05.jpg   	movNat   	3	waterfall 	37	waterfall05 	374	not_alive	0	moves	1	natural 	1	n	0	0        	 	0.0	0	167.415172499997	167.515165799996	0.0999932999984594
151675	100	308	stimuli/animals/cat/animal_cat02.jpg             	1	4	1	animal_cat02.jpg     	animals  	0	cat       	6	cat02       	61	alive    	1	moves	1	natural 	1	n	0	0        	 	0.0	0	167.565175199998	167.665166200008	0.0999910000100499
151825	100	309	stimuli/nonmovArt/headphones/nma_headphones07.jpg	1	4	1	nma_headphones07.jpg 	nonmovArt	4	headphones	18	headphones07	186	not_alive	0	still	0	artefact	0	n	0	0        	 	0.0	0	167.715207200003	167.8151717	0.0999644999974407
151975	100	310	stimuli/plant/flower/plant_flower06.jpg          	1	4	1	plant_flower06.jpg   	plant    	6	flower    	16	flower06    	165	alive    	1	still	0	natural 	1	n	0	0        	 	0.0	0	167.865187400006	167.965175999998	0.0999885999917751
152125	100	311	stimuli/plant2/clover/plant_clover03.jpg         	1	4	1	plant_clover03.jpg   	plant2   	7	clover    	9	clover03    	92	alive    	1	still	0	natural 	1	n	0	0        	 	0.0	0	168.015188499994	168.115179800006	0.0999913000123342
152275	100	312	stimuli/movArt/car/ma_car09.jpg                  	1	4	1	ma_car09.jpg         	movArt   	2	car       	5	car09       	58	not_alive	0	moves	1	artefact	0	n	0	0        	 	0.0	0	168.165189199994	168.265183299998	0.099994100004551
152425	100	313	stimuli/animals/cat/animal_cat09.jpg             	1	4	1	animal_cat09.jpg     	animals  	0	cat       	6	cat09       	68	alive    	1	moves	1	natural 	1	n	0	0        	 	0.0	0	168.315208800006	168.415187100007	0.0999783000006573
152575	100	314	stimuli/movArt/helicopter/ma_helicopter04.jpg    	1	4	1	ma_helicopter04.jpg  	movArt   	2	helicopter	19	helicopter04	193	not_alive	0	moves	1	artefact	0	n	0	0        	 	0.0	0	168.4652241	168.565191300004	0.0999672000034479
152725	100	315	stimuli/nonmovNat/crystal/nmn_crystal08.jpg      	1	4	1	nmn_crystal08.jpg    	nonmovNat	5	crystal   	10	crystal08   	107	not_alive	0	still	0	natural 	1	n	0	0        	 	0.0	0	168.615201699999	168.715205500004	0.100003800005652
152875	100	316	stimuli/animals/dog/animal_dog05.jpg             	1	4	1	animal_dog05.jpg     	animals  	0	dog       	11	dog05       	114	alive    	1	moves	1	natural 	1	n	0	0        	 	0.0	0	168.765231099998	168.865199199994	0.0999680999957491
153025	100	317	stimuli/animals2/whale/animal_whale02.jpg        	1	4	1	animal_whale02.jpg   	animals2 	1	whale     	39	whale02     	391	alive    	1	moves	1	natural 	1	n	0	0        	 	0.0	0	168.915208999999	169.015202900002	0.0999939000030281
153175	100	318	stimuli/animals2/lemur/animal_lemur09.jpg        	1	4	1	animal_lemur09.jpg   	animals2 	1	lemur     	23	lemur09     	238	alive    	1	moves	1	natural 	1	n	0	0        	 	0.0	0	169.065216999996	169.165208200007	0.0999912000115728
153325	100	319	stimuli/animals2/lemur/animal_lemur09.jpg        	1	4	1	animal_lemur09.jpg   	animals2 	1	lemur     	23	lemur09     	238	alive    	1	moves	1	natural 	1	n	0	0        	 	0.0	0	169.215232200004	169.315210700006	0.0999785000021802
155259	100	320	stimuli/nonmovArt/bench/nma_bench09.jpg          	1	5	1	nma_bench09.jpg      	nonmovArt	4	bench     	1	bench09     	18	not_alive	0	still	0	artefact	0	n	0	0        	 	0.0	0	171.148623700006	171.248597600003	0.0999738999962574
155409	100	321	stimuli/animals2/pigeon/animal_pigeon01.jpg      	1	5	1	animal_pigeon01.jpg  	animals2 	1	pigeon    	28	pigeon01    	280	alive    	1	moves	1	natural 	1	n	0	0        	 	0.0	0	171.298605200005	171.398601199995	0.0999959999899147
155559	100	322	stimuli/nonmovNat/rock/nmn_rock03.jpg            	1	5	1	nmn_rock03.jpg       	nonmovNat	5	rock      	30	rock03      	302	not_alive	0	still	0	natural 	1	n	0	0        	 	0.0	0	171.448611200001	171.548620800007	0.10000960000616
155709	100	323	stimuli/nonmovArt/headphones/nma_headphones06.jpg	1	5	1	nma_headphones06.jpg 	nonmovArt	4	headphones	18	headphones06	185	not_alive	0	still	0	artefact	0	n	0	0        	 	0.0	0	171.598614500006	171.698610699998	0.0999961999914376
155859	100	324	stimuli/plant/cactus/plant_cactus08.jpg          	1	5	1	plant_cactus08.jpg   	plant    	6	cactus    	4	cactus08    	47	alive    	1	still	0	natural 	1	n	0	0        	 	0.0	0	171.748646199994	171.848613199996	0.099967000001925
156009	100	325	stimuli/plant2/fern/plant_fern02.jpg             	1	5	1	plant_fern02.jpg     	plant2   	7	fern      	14	fern02      	141	alive    	1	still	0	natural 	1	n	0	0        	 	0.0	0	171.898653199998	171.9986164	0.0999632000020938
156159	100	326	stimuli/nonmovArt/lock/nma_lock05.jpg            	1	5	1	nma_lock05.jpg       	nonmovArt	4	lock      	24	lock05      	244	not_alive	0	still	0	artefact	0	n	0	0        	 	0.0	0	172.048628699995	172.148622699999	0.0999940000037896
156309	100	327	stimuli/animals/cat/animal_cat09.jpg             	1	5	1	animal_cat09.jpg     	animals  	0	cat       	6	cat09       	68	alive    	1	moves	1	natural 	1	n	0	0        	 	0.0	0	172.198632200001	172.298628000004	0.0999958000029437
156459	100	328	stimuli/movNat/waves/mn_waves06.jpg              	1	5	1	mn_waves06.jpg       	movNat   	3	waves     	38	waves06     	385	not_alive	0	moves	1	natural 	1	n	0	0        	 	0.0	0	172.348637600007	172.448628400001	0.0999907999939751
156609	100	329	stimuli/plant/flower/plant_flower10.jpg          	1	5	1	plant_flower10.jpg   	plant    	6	flower    	16	flower10    	169	alive    	1	still	0	natural 	1	n	0	0        	 	0.0	0	172.498654900002	172.598632399997	0.0999774999945657
156759	100	330	stimuli/animals2/tiger/animal_tiger10.jpg        	1	5	1	animal_tiger10.jpg   	animals2 	1	tiger     	33	tiger10     	339	alive    	1	moves	1	natural 	1	n	0	0        	 	0.0	0	172.648662399995	172.748638000005	0.099975600009202
156909	100	331	stimuli/movNat/fire/mn_fire01.jpg                	1	5	1	mn_fire01.jpg        	movNat   	3	fire      	15	fire01      	150	not_alive	0	moves	1	natural 	1	n	0	0        	 	0.0	0	172.798645899995	172.898647099995	0.100001200000406
157059	100	332	stimuli/movArt/bus/ma_bus05.jpg                  	1	5	1	ma_bus05.jpg         	movArt   	2	bus       	3	bus05       	34	not_alive	0	moves	1	artefact	0	n	0	0        	 	0.0	0	172.948652599996	173.048661299996	0.100008699999307
157209	100	333	stimuli/movArt/car/ma_car05.jpg                  	1	5	1	ma_car05.jpg         	movArt   	2	car       	5	car05       	54	not_alive	0	moves	1	artefact	0	n	1	0        	 	0.0	0	173.098655900001	173.198660099995	0.100004199994146
157359	100	334	stimuli/nonmovArt/lock/nma_lock08.jpg            	1	5	1	nma_lock08.jpg       	nonmovArt	4	lock      	24	lock08      	247	not_alive	0	still	0	artefact	0	n	0	0        	 	0.0	0	173.248659899997	173.348652999994	0.0999930999969365
157509	100	335	stimuli/animals2/whale/animal_whale03.jpg        	1	5	1	animal_whale03.jpg   	animals2 	1	whale     	39	whale03     	392	alive    	1	moves	1	natural 	1	n	1	1        	f	0.0919673000025796	1	173.398672099996	173.498656399999	0.0999843000026885
157659	100	336	stimuli/plant2/palmtree/plant_palmtree09.jpg     	1	5	1	plant_palmtree09.jpg 	plant2   	7	palmtree  	27	palmtree09  	278	alive    	1	still	0	natural 	1	n	0	0        	 	0.0	0	173.548667299998	173.648664299995	0.0999969999975292
157809	100	337	stimuli/animals/eagle/animal_eagle06.jpg         	1	5	1	animal_eagle06.jpg   	animals  	0	eagle     	13	eagle06     	135	alive    	1	moves	1	natural 	1	n	0	0        	 	0.0	0	173.698670900005	173.798663900001	0.0999929999961751
157959	100	338	stimuli/nonmovNat/sand/nmn_sand08.jpg            	1	5	1	nmn_sand08.jpg       	nonmovNat	5	sand      	31	sand08      	317	not_alive	0	still	0	natural 	1	n	0	1        	f	0.541967199998908	1	173.848675000001	173.948669100006	0.099994100004551
158109	100	339	stimuli/nonmovNat/crystal/nmn_crystal07.jpg      	1	5	1	nmn_crystal07.jpg    	nonmovNat	5	crystal   	10	crystal07   	106	not_alive	0	still	0	natural 	1	n	0	0        	 	0.0	0	173.998696499999	174.098674599998	0.0999780999991344
158259	100	340	stimuli/nonmovArt/bench/nma_bench04.jpg          	1	5	1	nma_bench04.jpg      	nonmovArt	4	bench     	1	bench04     	13	not_alive	0	still	0	artefact	0	n	0	0        	 	0.0	0	174.148724900006	174.248677399999	0.0999524999933783
158409	100	341	stimuli/movNat/waves/mn_waves09.jpg              	1	5	1	mn_waves09.jpg       	movNat   	3	waves     	38	waves09     	388	not_alive	0	moves	1	natural 	1	n	0	0        	 	0.0	0	174.298688399998	174.398679799997	0.0999913999985438
158559	100	342	stimuli/movArt/train/ma_train08.jpg              	1	5	1	ma_train08.jpg       	movArt   	2	train     	34	train08     	347	not_alive	0	moves	1	artefact	0	n	0	0        	 	0.0	0	174.4486951	174.548691799995	0.0999966999952448
158709	100	343	stimuli/movArt/train/ma_train08.jpg              	1	5	1	ma_train08.jpg       	movArt   	2	train     	34	train08     	347	not_alive	0	moves	1	artefact	0	n	0	0        	 	0.0	0	174.598697499998	174.698687299999	0.0999898000009125
158859	100	344	stimuli/movArt/bus/ma_bus06.jpg                  	1	5	1	ma_bus06.jpg         	movArt   	2	bus       	3	bus06       	35	not_alive	0	moves	1	artefact	0	n	0	0        	 	0.0	0	174.748706099999	174.848697699999	0.0999916000000667
159009	100	345	stimuli/plant/vine/plant_vine04.jpg              	1	5	1	plant_vine04.jpg     	plant    	6	vine      	36	vine04      	363	alive    	1	still	0	natural 	1	n	0	0        	 	0.0	0	174.898715000003	174.998697700008	0.0999827000050573
159159	100	346	stimuli/plant2/moss/plant_moss07.jpg             	1	5	1	plant_moss07.jpg     	plant2   	7	moss      	25	moss07      	256	alive    	1	still	0	natural 	1	n	0	0        	 	0.0	0	175.048708600007	175.148700399994	0.0999917999870377
159309	100	347	stimuli/movArt/boat/ma_boat05.jpg                	1	5	1	ma_boat05.jpg        	movArt   	2	boat      	2	boat05      	24	not_alive	0	moves	1	artefact	0	n	0	0        	 	0.0	0	175.198713499994	175.298705399997	0.099991900002351
159459	100	348	stimuli/plant/tree/plant_tree01.jpg              	1	5	1	plant_tree01.jpg     	plant    	6	tree      	35	tree01      	350	alive    	1	still	0	natural 	1	n	0	0        	 	0.0	0	175.348725300006	175.448709000004	0.0999836999981198
159609	100	349	stimuli/nonmovNat/sand/nmn_sand02.jpg            	1	5	1	nmn_sand02.jpg       	nonmovNat	5	sand      	31	sand02      	311	not_alive	0	still	0	natural 	1	n	0	0        	 	0.0	0	175.498724400008	175.598716099994	0.0999916999862762
159759	100	350	stimuli/animals/eagle/animal_eagle01.jpg         	1	5	1	animal_eagle01.jpg   	animals  	0	eagle     	13	eagle01     	130	alive    	1	moves	1	natural 	1	n	0	0        	 	0.0	0	175.648724900006	175.748718100003	0.099993199997698
159909	100	351	stimuli/plant2/palmtree/plant_palmtree06.jpg     	1	5	1	plant_palmtree06.jpg 	plant2   	7	palmtree  	27	palmtree06  	275	alive    	1	still	0	natural 	1	n	0	0        	 	0.0	0	175.7987269	175.898719400007	0.0999925000069197
160059	100	352	stimuli/movArt/helicopter/ma_helicopter06.jpg    	1	5	1	ma_helicopter06.jpg  	movArt   	2	helicopter	19	helicopter06	195	not_alive	0	moves	1	artefact	0	n	0	0        	 	0.0	0	175.948732699995	176.048726499997	0.0999938000022666
160209	100	353	stimuli/nonmovArt/lock/nma_lock06.jpg            	1	5	1	nma_lock06.jpg       	nonmovArt	4	lock      	24	lock06      	245	not_alive	0	still	0	artefact	0	n	0	0        	 	0.0	0	176.098737499997	176.198728300005	0.099990800008527
160359	100	354	stimuli/plant/tree/plant_tree07.jpg              	1	5	1	plant_tree07.jpg     	plant    	6	tree      	35	tree07      	356	alive    	1	still	0	natural 	1	n	0	0        	 	0.0	0	176.248740099996	176.3487341	0.0999940000037896
160509	100	355	stimuli/plant/grass/plant_grass06.jpg            	1	5	1	plant_grass06.jpg    	plant    	6	grass     	17	grass06     	175	alive    	1	still	0	natural 	1	n	0	0        	 	0.0	0	176.398747600004	176.498736599999	0.0999889999948209
160659	100	356	stimuli/plant2/lemontree/plant_lemontree05.jpg   	1	5	1	plant_lemontree05.jpg	plant2   	7	lemontree 	22	lemontree05 	224	alive    	1	still	0	natural 	1	n	0	0        	 	0.0	0	176.548748300003	176.648744799997	0.099996499993722
160809	100	357	stimuli/nonmovArt/clothespeg/nma_clothespeg08.jpg	1	5	1	nma_clothespeg08.jpg 	nonmovArt	4	clothespeg	8	clothespeg08	87	not_alive	0	still	0	artefact	0	n	0	0        	 	0.0	0	176.698751999997	176.798744300002	0.0999923000053968
160959	100	358	stimuli/movNat/river/mn_river05.jpg              	1	5	1	mn_river05.jpg       	movNat   	3	river     	29	river05     	294	not_alive	0	moves	1	natural 	1	n	0	0        	 	0.0	0	176.848765700008	176.948747000002	0.099981299994397
161109	100	359	stimuli/animals2/bee/animal_bee08.jpg            	1	5	1	animal_bee08.jpg     	animals2 	1	bee       	0	bee08       	7	alive    	1	moves	1	natural 	1	n	0	0        	 	0.0	0	176.998759199996	177.098785900002	0.100026700005401
161259	100	360	stimuli/movNat/hotspring/mn_hotspring09.jpg      	1	5	1	mn_hotspring09.jpg   	movNat   	3	hotspring 	21	hotspring09 	218	not_alive	0	moves	1	natural 	1	n	0	0        	 	0.0	0	177.148763400008	177.248755599998	0.0999921999900835
161409	100	361	stimuli/plant2/lemontree/plant_lemontree04.jpg   	1	5	1	plant_lemontree04.jpg	plant2   	7	lemontree 	22	lemontree04 	223	alive    	1	still	0	natural 	1	n	0	0        	 	0.0	0	177.298770299996	177.398759600008	0.0999893000116572
161559	100	362	stimuli/nonmovArt/lock/nma_lock04.jpg            	1	5	1	nma_lock04.jpg       	nonmovArt	4	lock      	24	lock04      	243	not_alive	0	still	0	artefact	0	n	0	0        	 	0.0	0	177.448773099997	177.548763500003	0.0999904000054812
161709	100	363	stimuli/plant2/clover/plant_clover05.jpg         	1	5	1	plant_clover05.jpg   	plant2   	7	clover    	9	clover05    	94	alive    	1	still	0	natural 	1	n	0	0        	 	0.0	0	177.598775299994	177.6987697	0.0999944000068354
161859	100	364	stimuli/animals/dog/animal_dog07.jpg             	1	5	1	animal_dog07.jpg     	animals  	0	dog       	11	dog07       	116	alive    	1	moves	1	natural 	1	n	0	0        	 	0.0	0	177.748779300004	177.848800599997	0.100021299993386
162009	100	365	stimuli/animals/cat/animal_cat03.jpg             	1	5	1	animal_cat03.jpg     	animals  	0	cat       	6	cat03       	62	alive    	1	moves	1	natural 	1	n	0	0        	 	0.0	0	177.898782999997	177.998775700005	0.0999927000084426
162159	100	366	stimuli/movNat/waves/mn_waves08.jpg              	1	5	1	mn_waves08.jpg       	movNat   	3	waves     	38	waves08     	387	not_alive	0	moves	1	natural 	1	n	0	0        	 	0.0	0	178.048786900006	178.148780600008	0.0999937000015052
162309	100	367	stimuli/movNat/river/mn_river03.jpg              	1	5	1	mn_river03.jpg       	movNat   	3	river     	29	river03     	292	not_alive	0	moves	1	natural 	1	n	0	0        	 	0.0	0	178.198801000006	178.298785100007	0.0999841000011656
162459	100	368	stimuli/animals/dog/animal_dog07.jpg             	1	5	1	animal_dog07.jpg     	animals  	0	dog       	11	dog07       	116	alive    	1	moves	1	natural 	1	n	0	0        	 	0.0	0	178.3487971	178.448809099995	0.100011999995331
162609	100	369	stimuli/animals/cat/animal_cat02.jpg             	1	5	1	animal_cat02.jpg     	animals  	0	cat       	6	cat02       	61	alive    	1	moves	1	natural 	1	n	0	0        	 	0.0	0	178.4988094	178.598808299997	0.0999988999974448
162759	100	370	stimuli/movArt/bus/ma_bus09.jpg                  	1	5	1	ma_bus09.jpg         	movArt   	2	bus       	3	bus09       	38	not_alive	0	moves	1	artefact	0	n	0	0        	 	0.0	0	178.648812200001	178.748798000001	0.0999857999995584
162909	100	371	stimuli/plant/flower/plant_flower06.jpg          	1	5	1	plant_flower06.jpg   	plant    	6	flower    	16	flower06    	165	alive    	1	still	0	natural 	1	n	0	0        	 	0.0	0	178.798805900005	178.898801699994	0.0999957999883918
163059	100	372	stimuli/nonmovNat/crystal/nmn_crystal10.jpg      	1	5	1	nmn_crystal10.jpg    	nonmovNat	5	crystal   	10	crystal10   	109	not_alive	0	still	0	natural 	1	n	1	0        	 	0.0	0	178.948806100001	179.048817600007	0.100011500006076
163209	100	373	stimuli/nonmovNat/rock/nmn_rock05.jpg            	1	5	1	nmn_rock05.jpg       	nonmovNat	5	rock      	30	rock05      	304	not_alive	0	still	0	natural 	1	n	0	0        	 	0.0	0	179.098814700003	179.198820899997	0.100006199994823
163359	100	374	stimuli/movNat/fire/mn_fire10.jpg                	1	5	1	mn_fire10.jpg        	movNat   	3	fire      	15	fire10      	159	not_alive	0	moves	1	natural 	1	n	0	1        	f	0.391984600006254	1	179.248823300004	179.348813999997	0.0999906999932136
163509	100	375	stimuli/movNat/fire/mn_fire10.jpg                	1	5	1	mn_fire10.jpg        	movNat   	3	fire      	15	fire10      	159	not_alive	0	moves	1	natural 	1	n	0	0        	 	0.0	0	179.398826400007	179.498818599997	0.0999921999900835
163659	100	376	stimuli/plant2/lemontree/plant_lemontree09.jpg   	1	5	1	plant_lemontree09.jpg	plant2   	7	lemontree 	22	lemontree09 	228	alive    	1	still	0	natural 	1	n	0	0        	 	0.0	0	179.548827599996	179.648818500005	0.0999909000092884
163809	100	377	stimuli/movArt/helicopter/ma_helicopter09.jpg    	1	5	1	ma_helicopter09.jpg  	movArt   	2	helicopter	19	helicopter09	198	not_alive	0	moves	1	artefact	0	n	0	0        	 	0.0	0	179.698860100005	179.798823200006	0.0999631000013324
163959	100	378	stimuli/movNat/waterfall/mn_waterfall10.jpg      	1	5	1	mn_waterfall10.jpg   	movNat   	3	waterfall 	37	waterfall10 	379	not_alive	0	moves	1	natural 	1	n	0	0        	 	0.0	0	179.848836400008	179.948828099994	0.0999916999862762
164109	100	379	stimuli/nonmovArt/clothespeg/nma_clothespeg03.jpg	1	5	1	nma_clothespeg03.jpg 	nonmovArt	4	clothespeg	8	clothespeg03	82	not_alive	0	still	0	artefact	0	n	0	0        	 	0.0	0	179.998840800006	180.098835099998	0.099994299991522
164259	100	380	stimuli/plant/vine/plant_vine05.jpg              	1	5	1	plant_vine05.jpg     	plant    	6	vine      	36	vine05      	364	alive    	1	still	0	natural 	1	n	0	0        	 	0.0	0	180.148841400005	180.248837399995	0.0999959999899147
164409	100	381	stimuli/movArt/bus/ma_bus03.jpg                  	1	5	1	ma_bus03.jpg         	movArt   	2	bus       	3	bus03       	32	not_alive	0	moves	1	artefact	0	n	0	0        	 	0.0	0	180.298869399994	180.398841999995	0.0999726000009105
164559	100	382	stimuli/movArt/train/ma_train03.jpg              	1	5	1	ma_train03.jpg       	movArt   	2	train     	34	train03     	342	not_alive	0	moves	1	artefact	0	n	0	0        	 	0.0	0	180.448867800005	180.548845600002	0.0999777999968501
164709	100	383	stimuli/plant2/palmtree/plant_palmtree03.jpg     	1	5	1	plant_palmtree03.jpg 	plant2   	7	palmtree  	27	palmtree03  	272	alive    	1	still	0	natural 	1	n	0	0        	 	0.0	0	180.598854199998	180.698847899999	0.0999937000015052
164859	100	384	stimuli/movNat/waterfall/mn_waterfall09.jpg      	1	5	1	mn_waterfall09.jpg   	movNat   	3	waterfall 	37	waterfall09 	378	not_alive	0	moves	1	natural 	1	n	0	0        	 	0.0	0	180.748861600005	180.848864600004	0.10000299999956
165009	100	385	stimuli/movArt/boat/ma_boat10.jpg                	1	5	1	ma_boat10.jpg        	movArt   	2	boat      	2	boat10      	29	not_alive	0	moves	1	artefact	0	n	0	0        	 	0.0	0	180.898864899995	180.998858100007	0.0999932000122499
165159	100	386	stimuli/plant/vine/plant_vine06.jpg              	1	5	1	plant_vine06.jpg     	plant    	6	vine      	36	vine06      	365	alive    	1	still	0	natural 	1	n	0	0        	 	0.0	0	181.048876800007	181.148861399997	0.099984599990421
165309	100	387	stimuli/plant/flower/plant_flower04.jpg          	1	5	1	plant_flower04.jpg   	plant    	6	flower    	16	flower04    	163	alive    	1	still	0	natural 	1	n	0	0        	 	0.0	0	181.198883999998	181.298865599994	0.0999815999966813
165459	100	388	stimuli/movNat/fire/mn_fire02.jpg                	1	5	1	mn_fire02.jpg        	movNat   	3	fire      	15	fire02      	151	not_alive	0	moves	1	natural 	1	n	0	0        	 	0.0	0	181.348875299998	181.448871800007	0.0999965000082739
165609	100	389	stimuli/nonmovNat/sand/nmn_sand01.jpg            	1	5	1	nmn_sand01.jpg       	nonmovNat	5	sand      	31	sand01      	310	not_alive	0	still	0	natural 	1	n	0	0        	 	0.0	0	181.498878099999	181.598875199998	0.0999970999982906
165759	100	390	stimuli/movArt/helicopter/ma_helicopter06.jpg    	1	5	1	ma_helicopter06.jpg  	movArt   	2	helicopter	19	helicopter06	195	not_alive	0	moves	1	artefact	0	n	0	0        	 	0.0	0	181.648884499999	181.748879399995	0.0999948999960907
165909	100	391	stimuli/plant/grass/plant_grass10.jpg            	1	5	1	plant_grass10.jpg    	plant    	6	grass     	17	grass10     	179	alive    	1	still	0	natural 	1	n	0	0        	 	0.0	0	181.798888100006	181.898882900001	0.0999947999953292
166059	100	392	stimuli/movNat/waves/mn_waves03.jpg              	1	5	1	mn_waves03.jpg       	movNat   	3	waves     	38	waves03     	382	not_alive	0	moves	1	natural 	1	n	0	0        	 	0.0	0	181.948890400003	182.048885099997	0.0999946999945678
166209	100	393	stimuli/nonmovArt/mug/nma_mug05.jpg              	1	5	1	nma_mug05.jpg        	nonmovArt	4	mug       	26	mug05       	264	not_alive	0	still	0	artefact	0	n	0	0        	 	0.0	0	182.098896700001	182.198890600004	0.0999939000030281
166359	100	394	stimuli/plant2/lemontree/plant_lemontree02.jpg   	1	5	1	plant_lemontree02.jpg	plant2   	7	lemontree 	22	lemontree02 	221	alive    	1	still	0	natural 	1	n	0	0        	 	0.0	0	182.248897500001	182.348892299997	0.0999947999953292
166509	100	395	stimuli/movNat/hotspring/mn_hotspring07.jpg      	1	5	1	mn_hotspring07.jpg   	movNat   	3	hotspring 	21	hotspring07 	216	not_alive	0	moves	1	natural 	1	n	0	0        	 	0.0	0	182.398902100002	182.498898399994	0.0999962999921991
166659	100	396	stimuli/animals/cat/animal_cat03.jpg             	1	5	1	animal_cat03.jpg     	animals  	0	cat       	6	cat03       	62	alive    	1	moves	1	natural 	1	n	0	0        	 	0.0	0	182.548908199999	182.648894900005	0.0999867000064114
166809	100	397	stimuli/movArt/car/ma_car08.jpg                  	1	5	1	ma_car08.jpg         	movArt   	2	car       	5	car08       	57	not_alive	0	moves	1	artefact	0	n	0	0        	 	0.0	0	182.698911500003	182.798904099996	0.0999925999931293
166959	100	398	stimuli/animals2/tiger/animal_tiger04.jpg        	1	5	1	animal_tiger04.jpg   	animals2 	1	tiger     	33	tiger04     	333	alive    	1	moves	1	natural 	1	n	0	0        	 	0.0	0	182.848916000003	182.948910499996	0.0999944999930449
167109	100	399	stimuli/plant2/moss/plant_moss06.jpg             	1	5	1	plant_moss06.jpg     	plant2   	7	moss      	25	moss06      	255	alive    	1	still	0	natural 	1	n	0	0        	 	0.0	0	182.9989355	183.098912999994	0.0999774999945657
171309	100	400	stimuli/animals/horse/animal_horse09.jpg         	1	6	1	animal_horse09.jpg   	animals  	0	horse     	20	horse09     	208	alive    	1	moves	1	natural 	1	n	0	0        	 	0.0	0	187.199028100004	187.299018899997	0.0999907999939751
171459	100	401	stimuli/plant2/palmtree/plant_palmtree01.jpg     	1	6	1	plant_palmtree01.jpg 	plant2   	7	palmtree  	27	palmtree01  	270	alive    	1	still	0	natural 	1	n	0	0        	 	0.0	0	187.349051600002	187.449022999994	0.0999713999917731
171609	100	402	stimuli/nonmovArt/bench/nma_bench01.jpg          	1	6	1	nma_bench01.jpg      	nonmovArt	4	bench     	1	bench01     	10	not_alive	0	still	0	artefact	0	n	0	0        	 	0.0	0	187.499034199995	187.599040600006	0.100006400010898
171759	100	403	stimuli/nonmovArt/clothespeg/nma_clothespeg09.jpg	1	6	1	nma_clothespeg09.jpg 	nonmovArt	4	clothespeg	8	clothespeg09	88	not_alive	0	still	0	artefact	0	n	0	0        	 	0.0	0	187.649042000005	187.749033	0.099990999995498
171909	100	404	stimuli/nonmovNat/sand/nmn_sand04.jpg            	1	6	1	nmn_sand04.jpg       	nonmovNat	5	sand      	31	sand04      	313	not_alive	0	still	0	natural 	1	n	0	0        	 	0.0	0	187.799042400002	187.899035099996	0.0999926999938907
172059	100	405	stimuli/nonmovArt/headphones/nma_headphones08.jpg	1	6	1	nma_headphones08.jpg 	nonmovArt	4	headphones	18	headphones08	187	not_alive	0	still	0	artefact	0	n	0	0        	 	0.0	0	187.9490449	188.049039799997	0.0999948999960907
172209	100	406	stimuli/plant/tree/plant_tree04.jpg              	1	6	1	plant_tree04.jpg     	plant    	6	tree      	35	tree04      	353	alive    	1	still	0	natural 	1	n	0	0        	 	0.0	0	188.099079499996	188.199043800007	0.0999643000104697
172359	100	407	stimuli/plant/cactus/plant_cactus09.jpg          	1	6	1	plant_cactus09.jpg   	plant    	6	cactus    	4	cactus09    	48	alive    	1	still	0	natural 	1	n	0	0        	 	0.0	0	188.249052600004	188.349052999998	0.100000399994315
172509	100	408	stimuli/animals2/lemur/animal_lemur08.jpg        	1	6	1	animal_lemur08.jpg   	animals2 	1	lemur     	23	lemur08     	237	alive    	1	moves	1	natural 	1	n	0	0        	 	0.0	0	188.399056900002	188.499050700004	0.0999938000022666
172659	100	409	stimuli/animals2/lemur/animal_lemur07.jpg        	1	6	1	animal_lemur07.jpg   	animals2 	1	lemur     	23	lemur07     	236	alive    	1	moves	1	natural 	1	n	0	0        	 	0.0	0	188.549063300001	188.649056499999	0.099993199997698
172809	100	410	stimuli/nonmovNat/rock/nmn_rock04.jpg            	1	6	1	nmn_rock04.jpg       	nonmovNat	5	rock      	30	rock04      	303	not_alive	0	still	0	natural 	1	n	0	0        	 	0.0	0	188.699089899994	188.799058799996	0.0999689000018407
172959	100	411	stimuli/animals2/whale/animal_whale03.jpg        	1	6	1	animal_whale03.jpg   	animals2 	1	whale     	39	whale03     	392	alive    	1	moves	1	natural 	1	n	0	0        	 	0.0	0	188.849083499997	188.949063299995	0.0999797999975272
173109	100	412	stimuli/movArt/train/ma_train05.jpg              	1	6	1	ma_train05.jpg       	movArt   	2	train     	34	train05     	344	not_alive	0	moves	1	artefact	0	n	0	0        	 	0.0	0	188.999075700005	189.099069200005	0.0999934999999823
173259	100	413	stimuli/movNat/river/mn_river04.jpg              	1	6	1	mn_river04.jpg       	movNat   	3	river     	29	river04     	293	not_alive	0	moves	1	natural 	1	n	0	0        	 	0.0	0	189.149080000003	189.249070899998	0.0999908999947365
