onset	duration	eventnumber	stimulus_file	blockno	trialno	is_faststream	stim	stim_category	category_number	exemplar	exemplar_number	image_name	image_number	aliveness	aliveness_bin	movement	movement_bin	naturalness	naturalness_bin	response_hand_alive	istarget	response	keypressed	rt	correct	time_stimon	time_stimoff	stimdur
68122	100	0	stimuli/animals2/bee/animal_bee06.jpg            	1	1	1	animal_bee06.jpg     	animals2 	1	bee       	0	bee06       	5	alive    	1	moves	1	natural 	1	n	0	0        	 	0.0	0	157.365437800065	157.4654128002	0.0999750001356006
68272	100	1	stimuli/nonmovArt/mug/nma_mug10.jpg              	1	1	1	nma_mug10.jpg        	nonmovArt	4	mug       	26	mug10       	269	not_alive	0	still	0	artefact	0	n	0	0        	 	0.0	0	157.515418000054	157.615403600037	0.0999855999834836
68422	100	2	stimuli/movNat/fire/mn_fire03.jpg                	1	1	1	mn_fire03.jpg        	movNat   	3	fire      	15	fire03      	152	not_alive	0	moves	1	natural 	1	n	0	0        	 	0.0	0	157.665412500035	157.765405599959	0.0999930999241769
68572	100	3	stimuli/plant2/lemontree/plant_lemontree05.jpg   	1	1	1	plant_lemontree05.jpg	plant2   	7	lemontree 	22	lemontree05 	224	alive    	1	still	0	natural 	1	n	0	0        	 	0.0	0	157.815418499988	157.915408300236	0.0999898002482951
68722	100	4	stimuli/animals/cat/animal_cat09.jpg             	1	1	1	animal_cat09.jpg     	animals  	0	cat       	6	cat09       	68	alive    	1	moves	1	natural 	1	n	0	0        	 	0.0	0	157.965421100147	158.065413200296	0.0999921001493931
68872	100	5	stimuli/animals/cat/animal_cat03.jpg             	1	1	1	animal_cat03.jpg     	animals  	0	cat       	6	cat03       	62	alive    	1	moves	1	natural 	1	n	0	0        	 	0.0	0	158.11541890027	158.215416500345	0.0999976000748575
69022	100	6	stimuli/movArt/boat/ma_boat08.jpg                	1	1	1	ma_boat08.jpg        	movArt   	2	boat      	2	boat08      	27	not_alive	0	moves	1	artefact	0	n	0	0        	 	0.0	0	158.26542850025	158.365422000177	0.0999934999272227
69172	100	7	stimuli/movNat/hotspring/mn_hotspring02.jpg      	1	1	1	mn_hotspring02.jpg   	movNat   	3	hotspring 	21	hotspring02 	211	not_alive	0	moves	1	natural 	1	n	0	0        	 	0.0	0	158.415831900202	158.515443100128	0.099611199926585
69322	100	8	stimuli/animals/dolphin/animal_dolphin02.jpg     	1	1	1	animal_dolphin02.jpg 	animals  	0	dolphin   	12	dolphin02   	121	alive    	1	moves	1	natural 	1	n	0	0        	 	0.0	0	158.565451500006	158.665443900041	0.0999924000352621
69472	100	9	stimuli/nonmovArt/bench/nma_bench02.jpg          	1	1	1	nma_bench02.jpg      	nonmovArt	4	bench     	1	bench02     	11	not_alive	0	still	0	artefact	0	n	0	0        	 	0.0	0	158.715452000033	158.815461700317	0.100009700283408
69622	100	10	stimuli/animals/cat/animal_cat10.jpg             	1	1	1	animal_cat10.jpg     	animals  	0	cat       	6	cat10       	69	alive    	1	moves	1	natural 	1	n	0	0        	 	0.0	0	158.865474699996	158.965454000048	0.0999793000519276
69772	100	11	stimuli/nonmovNat/cliff/nmn_cliff10.jpg          	1	1	1	nmn_cliff10.jpg      	nonmovNat	5	cliff     	7	cliff10     	79	not_alive	0	still	0	natural 	1	n	0	0        	 	0.0	0	159.015477800276	159.115452300292	0.099974500015378
69922	100	12	stimuli/plant2/clover/plant_clover08.jpg         	1	1	1	plant_clover08.jpg   	plant2   	7	clover    	9	clover08    	97	alive    	1	still	0	natural 	1	n	1	0        	 	0.0	0	159.165498699993	159.265458400361	0.0999597003683448
70072	100	13	stimuli/animals/horse/animal_horse10.jpg         	1	1	1	animal_horse10.jpg   	animals  	0	horse     	20	horse10     	209	alive    	1	moves	1	natural 	1	n	0	1        	f	0.241930100135505	1	159.315469500143	159.415478500072	0.100008999928832
70222	100	14	stimuli/animals2/tiger/animal_tiger10.jpg        	1	1	1	animal_tiger10.jpg   	animals2 	1	tiger     	33	tiger10     	339	alive    	1	moves	1	natural 	1	n	0	0        	 	0.0	0	159.465509400237	159.565465200227	0.0999557999894023
70372	100	15	stimuli/plant/vine/plant_vine04.jpg              	1	1	1	plant_vine04.jpg     	plant    	6	vine      	36	vine04      	363	alive    	1	still	0	natural 	1	n	0	0        	 	0.0	0	159.615492000245	159.715485800058	0.0999937998130918
70522	100	16	stimuli/nonmovNat/crystal/nmn_crystal03.jpg      	1	1	1	nmn_crystal03.jpg    	nonmovNat	5	crystal   	10	crystal03   	102	not_alive	0	still	0	natural 	1	n	0	0        	 	0.0	0	159.765479000285	159.865471499972	0.0999924996867776
70672	100	17	stimuli/plant/vine/plant_vine09.jpg              	1	1	1	plant_vine09.jpg     	plant    	6	vine      	36	vine09      	368	alive    	1	still	0	natural 	1	n	0	0        	 	0.0	0	159.915481900331	160.015473200008	0.0999912996776402
70822	100	18	stimuli/nonmovNat/crystal/nmn_crystal09.jpg      	1	1	1	nmn_crystal09.jpg    	nonmovNat	5	crystal   	10	crystal09   	108	not_alive	0	still	0	natural 	1	n	1	0        	 	0.0	0	160.06548350025	160.165480200201	0.0999966999515891
70972	100	19	stimuli/plant2/moss/plant_moss09.jpg             	1	1	1	plant_moss09.jpg     	plant2   	7	moss      	25	moss09      	258	alive    	1	still	0	natural 	1	n	0	1        	f	0.241960099898279	1	160.215503500309	160.315482000355	0.099978500045836
71122	100	20	stimuli/plant2/fern/plant_fern06.jpg             	1	1	1	plant_fern06.jpg     	plant2   	7	fern      	14	fern06      	145	alive    	1	still	0	natural 	1	n	1	0        	 	0.0	0	160.36549350014	160.46550580021	0.100012300070375
71272	100	21	stimuli/nonmovNat/cliff/nmn_cliff04.jpg          	1	1	1	nmn_cliff04.jpg      	nonmovNat	5	cliff     	7	cliff04     	73	not_alive	0	still	0	natural 	1	n	0	0        	 	0.0	0	160.515495700296	160.61550670024	0.100010999944061
71422	100	22	stimuli/nonmovNat/sand/nmn_sand06.jpg            	1	1	1	nmn_sand06.jpg       	nonmovNat	5	sand      	31	sand06      	315	not_alive	0	still	0	natural 	1	n	0	1        	f	0.391951499972493	1	160.665503000375	160.765501600225	0.0999985998496413
71572	100	23	stimuli/plant2/lemontree/plant_lemontree04.jpg   	1	1	1	plant_lemontree04.jpg	plant2   	7	lemontree 	22	lemontree04 	223	alive    	1	still	0	natural 	1	n	0	0        	 	0.0	0	160.815501700155	160.915505600162	0.100003900006413
71722	100	24	stimuli/plant2/fern/plant_fern02.jpg             	1	1	1	plant_fern02.jpg     	plant2   	7	fern      	14	fern02      	141	alive    	1	still	0	natural 	1	n	0	0        	 	0.0	0	160.965522600338	161.065502900165	0.0999802998267114
71872	100	25	stimuli/plant/cactus/plant_cactus10.jpg          	1	1	1	plant_cactus10.jpg   	plant    	6	cactus    	4	cactus10    	49	alive    	1	still	0	natural 	1	n	0	0        	 	0.0	0	161.11553109996	161.215519600082	0.0999885001219809
72022	100	26	stimuli/movArt/car/ma_car03.jpg                  	1	1	1	ma_car03.jpg         	movArt   	2	car       	5	car03       	52	not_alive	0	moves	1	artefact	0	n	0	0        	 	0.0	0	161.265514700208	161.365524500143	0.100009799934924
72172	100	27	stimuli/nonmovArt/bench/nma_bench06.jpg          	1	1	1	nma_bench06.jpg      	nonmovArt	4	bench     	1	bench06     	15	not_alive	0	still	0	artefact	0	n	0	0        	 	0.0	0	161.415534200147	161.515526600182	0.0999924000352621
72322	100	28	stimuli/nonmovNat/shell/nmn_shell01.jpg          	1	1	1	nmn_shell01.jpg      	nonmovNat	5	shell     	32	shell01     	320	not_alive	0	still	0	natural 	1	n	0	0        	 	0.0	0	161.565520700067	161.665551600046	0.100030899979174
72472	100	29	stimuli/animals/eagle/animal_eagle03.jpg         	1	1	1	animal_eagle03.jpg   	animals  	0	eagle     	13	eagle03     	132	alive    	1	moves	1	natural 	1	n	0	0        	 	0.0	0	161.715539800003	161.815533100162	0.0999933001585305
72622	100	30	stimuli/movNat/river/mn_river08.jpg              	1	1	1	mn_river08.jpg       	movNat   	3	river     	29	river08     	297	not_alive	0	moves	1	natural 	1	n	0	0        	 	0.0	0	161.865546900313	161.965538599994	0.099991699680686
72772	100	31	stimuli/animals2/pigeon/animal_pigeon04.jpg      	1	1	1	animal_pigeon04.jpg  	animals2 	1	pigeon    	28	pigeon04    	283	alive    	1	moves	1	natural 	1	n	0	0        	 	0.0	0	162.015548700001	162.115525300149	0.0999766001477838
72922	100	32	stimuli/movArt/bus/ma_bus01.jpg                  	1	1	1	ma_bus01.jpg         	movArt   	2	bus       	3	bus01       	30	not_alive	0	moves	1	artefact	0	n	0	0        	 	0.0	0	162.165537800174	162.265531700104	0.0999938999302685
73072	100	33	stimuli/movArt/bus/ma_bus01.jpg                  	1	1	1	ma_bus01.jpg         	movArt   	2	bus       	3	bus01       	30	not_alive	0	moves	1	artefact	0	n	0	0        	 	0.0	0	162.315538800322	162.415555600077	0.100016799755394
73222	100	34	stimuli/animals2/tiger/animal_tiger02.jpg        	1	1	1	animal_tiger02.jpg   	animals2 	1	tiger     	33	tiger02     	331	alive    	1	moves	1	natural 	1	n	0	0        	 	0.0	0	162.465543700382	162.565549400169	0.100005699787289
73372	100	35	stimuli/movArt/boat/ma_boat05.jpg                	1	1	1	ma_boat05.jpg        	movArt   	2	boat      	2	boat05      	24	not_alive	0	moves	1	artefact	0	n	0	0        	 	0.0	0	162.615556100383	162.715560800396	0.100004700012505
73522	100	36	stimuli/animals/dog/animal_dog07.jpg             	1	1	1	animal_dog07.jpg     	animals  	0	dog       	11	dog07       	116	alive    	1	moves	1	natural 	1	n	0	0        	 	0.0	0	162.765569500159	162.865542900283	0.0999734001234174
73672	100	37	stimuli/movArt/helicopter/ma_helicopter05.jpg    	1	1	1	ma_helicopter05.jpg  	movArt   	2	helicopter	19	helicopter05	194	not_alive	0	moves	1	artefact	0	n	0	0        	 	0.0	0	162.915570000187	163.015549000353	0.0999790001660585
73822	100	38	stimuli/nonmovNat/rock/nmn_rock01.jpg            	1	1	1	nmn_rock01.jpg       	nonmovNat	5	rock      	30	rock01      	300	not_alive	0	still	0	natural 	1	n	0	0        	 	0.0	0	163.065555700101	163.165565800387	0.100010100286454
73972	100	39	stimuli/movArt/car/ma_car10.jpg                  	1	1	1	ma_car10.jpg         	movArt   	2	car       	5	car10       	59	not_alive	0	moves	1	artefact	0	n	0	0        	 	0.0	0	163.215578900184	163.315570699982	0.0999917997978628
74122	100	40	stimuli/animals/horse/animal_horse02.jpg         	1	1	1	animal_horse02.jpg   	animals  	0	horse     	20	horse02     	201	alive    	1	moves	1	natural 	1	n	0	0        	 	0.0	0	163.365573800169	163.465574800037	0.100000999867916
74272	100	41	stimuli/movNat/fire/mn_fire05.jpg                	1	1	1	mn_fire05.jpg        	movNat   	3	fire      	15	fire05      	154	not_alive	0	moves	1	natural 	1	n	0	1        	f	0.0	0	163.515595500357	163.615562600084	0.0999670997262001
74422	100	42	stimuli/plant2/moss/plant_moss10.jpg             	1	1	1	plant_moss10.jpg     	plant2   	7	moss      	25	moss10      	259	alive    	1	still	0	natural 	1	n	0	0        	 	0.0	0	163.665571500082	163.765568200033	0.0999966999515891
74572	100	43	stimuli/nonmovNat/cliff/nmn_cliff05.jpg          	1	1	1	nmn_cliff05.jpg      	nonmovNat	5	cliff     	7	cliff05     	74	not_alive	0	still	0	natural 	1	n	0	0        	 	0.0	0	163.815626300406	163.915571399964	0.0999450995586812
74722	100	44	stimuli/animals2/whale/animal_whale09.jpg        	1	1	1	animal_whale09.jpg   	animals2 	1	whale     	39	whale09     	398	alive    	1	moves	1	natural 	1	n	0	0        	 	0.0	0	163.965577800293	164.065588900354	0.100011100061238
74872	100	45	stimuli/plant/flower/plant_flower04.jpg          	1	1	1	plant_flower04.jpg   	plant    	6	flower    	16	flower04    	163	alive    	1	still	0	natural 	1	n	0	0        	 	0.0	0	164.115597099997	164.215596999973	0.0999998999759555
75022	100	46	stimuli/movArt/car/ma_car07.jpg                  	1	1	1	ma_car07.jpg         	movArt   	2	car       	5	car07       	56	not_alive	0	moves	1	artefact	0	n	0	0        	 	0.0	0	164.265591199975	164.365579199977	0.0999880000017583
75172	100	47	stimuli/animals2/bee/animal_bee06.jpg            	1	1	1	animal_bee06.jpg     	animals2 	1	bee       	0	bee06       	5	alive    	1	moves	1	natural 	1	n	0	0        	 	0.0	0	164.415592100006	164.51558320038	0.0999911003746092
75322	100	48	stimuli/plant2/fern/plant_fern10.jpg             	1	1	1	plant_fern10.jpg     	plant2   	7	fern      	14	fern10      	149	alive    	1	still	0	natural 	1	n	0	0        	 	0.0	0	164.56559320027	164.665601999965	0.100008799694479
75472	100	49	stimuli/animals/eagle/animal_eagle01.jpg         	1	1	1	animal_eagle01.jpg   	animals  	0	eagle     	13	eagle01     	130	alive    	1	moves	1	natural 	1	n	0	0        	 	0.0	0	164.715597500093	164.815608600155	0.100011100061238
75622	100	50	stimuli/plant/grass/plant_grass06.jpg            	1	1	1	plant_grass06.jpg    	plant    	6	grass     	17	grass06     	175	alive    	1	still	0	natural 	1	n	0	0        	 	0.0	0	164.865617200267	164.965596700087	0.0999794998206198
75772	100	51	stimuli/plant/tree/plant_tree03.jpg              	1	1	1	plant_tree03.jpg     	plant    	6	tree      	35	tree03      	352	alive    	1	still	0	natural 	1	n	0	0        	 	0.0	0	165.015618400183	165.115596800111	0.0999783999286592
75922	100	52	stimuli/plant/tree/plant_tree06.jpg              	1	1	1	plant_tree06.jpg     	plant    	6	tree      	35	tree06      	355	alive    	1	still	0	natural 	1	n	0	0        	 	0.0	0	165.165607700124	165.265601800289	0.0999941001646221
76072	100	53	stimuli/nonmovArt/lock/nma_lock02.jpg            	1	1	1	nma_lock02.jpg       	nonmovArt	4	lock      	24	lock02      	241	not_alive	0	still	0	artefact	0	n	0	0        	 	0.0	0	165.315614500083	165.415610900149	0.0999964000657201
76222	100	54	stimuli/nonmovNat/shell/nmn_shell04.jpg          	1	1	1	nmn_shell04.jpg      	nonmovNat	5	shell     	32	shell04     	323	not_alive	0	still	0	natural 	1	n	0	0        	 	0.0	0	165.465631600004	165.565624500159	0.0999929001554847
76372	100	55	stimuli/nonmovArt/lock/nma_lock03.jpg            	1	1	1	nma_lock03.jpg       	nonmovArt	4	lock      	24	lock03      	242	not_alive	0	still	0	artefact	0	n	0	0        	 	0.0	0	165.615617800038	165.7156289001	0.100011100061238
76522	100	56	stimuli/plant/grass/plant_grass09.jpg            	1	1	1	plant_grass09.jpg    	plant    	6	grass     	17	grass09     	178	alive    	1	still	0	natural 	1	n	0	0        	 	0.0	0	165.765638400335	165.865614700131	0.0999762997962534
76672	100	57	stimuli/movArt/train/ma_train09.jpg              	1	1	1	ma_train09.jpg       	movArt   	2	train     	34	train09     	348	not_alive	0	moves	1	artefact	0	n	0	0        	 	0.0	0	165.915625800379	166.01561800018	0.0999921998009086
76822	100	58	stimuli/animals2/whale/animal_whale03.jpg        	1	1	1	animal_whale03.jpg   	animals2 	1	whale     	39	whale03     	392	alive    	1	moves	1	natural 	1	n	0	0        	 	0.0	0	166.065644000191	166.165627100039	0.099983099848032
76972	100	59	stimuli/nonmovArt/mug/nma_mug05.jpg              	1	1	1	nma_mug05.jpg        	nonmovArt	4	mug       	26	mug05       	264	not_alive	0	still	0	artefact	0	n	0	0        	 	0.0	0	166.215647200122	166.315626100171	0.0999789000488818
77122	100	60	stimuli/nonmovArt/clothespeg/nma_clothespeg10.jpg	1	1	1	nma_clothespeg10.jpg 	nonmovArt	4	clothespeg	8	clothespeg10	89	not_alive	0	still	0	artefact	0	n	0	0        	 	0.0	0	166.365637900308	166.465631400235	0.0999934999272227
77272	100	61	stimuli/movNat/waves/mn_waves08.jpg              	1	1	1	mn_waves08.jpg       	movNat   	3	waves     	38	waves08     	387	not_alive	0	moves	1	natural 	1	n	0	0        	 	0.0	0	166.515658600256	166.61563330004	0.0999746997840702
77422	100	62	stimuli/nonmovArt/headphones/nma_headphones07.jpg	1	1	1	nma_headphones07.jpg 	nonmovArt	4	headphones	18	headphones07	186	not_alive	0	still	0	artefact	0	n	0	0        	 	0.0	0	166.665643900167	166.765657200012	0.100013299845159
77572	100	63	stimuli/movNat/river/mn_river07.jpg              	1	1	1	mn_river07.jpg       	movNat   	3	river     	29	river07     	296	not_alive	0	moves	1	natural 	1	n	0	0        	 	0.0	0	166.815663500223	166.915640200023	0.0999766997992992
77722	100	64	stimuli/animals2/tiger/animal_tiger07.jpg        	1	1	1	animal_tiger07.jpg   	animals2 	1	tiger     	33	tiger07     	336	alive    	1	moves	1	natural 	1	n	0	0        	 	0.0	0	166.965653200168	167.065649600234	0.0999964000657201
77872	100	65	stimuli/movNat/hotspring/mn_hotspring10.jpg      	1	1	1	mn_hotspring10.jpg   	movNat   	3	hotspring 	21	hotspring10 	219	not_alive	0	moves	1	natural 	1	n	0	0        	 	0.0	0	167.115659200121	167.215631100349	0.099971900228411
78022	100	66	stimuli/animals2/lemur/animal_lemur10.jpg        	1	1	1	animal_lemur10.jpg   	animals2 	1	lemur     	23	lemur10     	239	alive    	1	moves	1	natural 	1	n	0	0        	 	0.0	0	167.265656400006	167.36566610029	0.100009700283408
78172	100	67	stimuli/plant/cactus/plant_cactus08.jpg          	1	1	1	plant_cactus08.jpg   	plant    	6	cactus    	4	cactus08    	47	alive    	1	still	0	natural 	1	n	0	0        	 	0.0	0	167.415662900079	167.515669700224	0.100006800144911
78322	100	68	stimuli/animals2/bee/animal_bee05.jpg            	1	1	1	animal_bee05.jpg     	animals2 	1	bee       	0	bee05       	4	alive    	1	moves	1	natural 	1	n	0	0        	 	0.0	0	167.565686000045	167.66567490017	0.0999889001250267
78472	100	69	stimuli/plant2/palmtree/plant_palmtree09.jpg     	1	1	1	plant_palmtree09.jpg 	plant2   	7	palmtree  	27	palmtree09  	278	alive    	1	still	0	natural 	1	n	0	0        	 	0.0	0	167.715675100219	167.815683700144	0.100008599925786
78622	100	70	stimuli/movNat/river/mn_river09.jpg              	1	1	1	mn_river09.jpg       	movNat   	3	river     	29	river09     	298	not_alive	0	moves	1	natural 	1	n	0	0        	 	0.0	0	167.865672700107	167.965677100234	0.100004400126636
78772	100	71	stimuli/animals/dolphin/animal_dolphin09.jpg     	1	1	1	animal_dolphin09.jpg 	animals  	0	dolphin   	12	dolphin09   	128	alive    	1	moves	1	natural 	1	n	0	0        	 	0.0	0	168.015674500261	168.115669900086	0.0999953998252749
78922	100	72	stimuli/plant2/clover/plant_clover09.jpg         	1	1	1	plant_clover09.jpg   	plant2   	7	clover    	9	clover09    	98	alive    	1	still	0	natural 	1	n	0	0        	 	0.0	0	168.165694900323	168.265673200134	0.0999782998114824
79072	100	73	stimuli/plant/flower/plant_flower08.jpg          	1	1	1	plant_flower08.jpg   	plant    	6	flower    	16	flower08    	167	alive    	1	still	0	natural 	1	n	0	0        	 	0.0	0	168.315705799963	168.415675700177	0.099969900213182
79222	100	74	stimuli/animals/horse/animal_horse01.jpg         	1	1	1	animal_horse01.jpg   	animals  	0	horse     	20	horse01     	200	alive    	1	moves	1	natural 	1	n	0	0        	 	0.0	0	168.465703600086	168.565681100357	0.0999775002710521
79372	100	75	stimuli/plant/grass/plant_grass10.jpg            	1	1	1	plant_grass10.jpg    	plant    	6	grass     	17	grass10     	179	alive    	1	still	0	natural 	1	n	0	0        	 	0.0	0	168.615712800063	168.715700900182	0.0999881001189351
79522	100	76	stimuli/movNat/waves/mn_waves07.jpg              	1	1	1	mn_waves07.jpg       	movNat   	3	waves     	38	waves07     	386	not_alive	0	moves	1	natural 	1	n	0	0        	 	0.0	0	168.76569489995	168.865687900223	0.0999930002726614
79672	100	77	stimuli/nonmovArt/lock/nma_lock01.jpg            	1	1	1	nma_lock01.jpg       	nonmovArt	4	lock      	24	lock01      	240	not_alive	0	still	0	artefact	0	n	0	0        	 	0.0	0	168.915715700015	169.015706000384	0.0999903003685176
79822	100	78	stimuli/nonmovNat/rock/nmn_rock08.jpg            	1	1	1	nmn_rock08.jpg       	nonmovNat	5	rock      	30	rock08      	307	not_alive	0	still	0	natural 	1	n	0	0        	 	0.0	0	169.065690100193	169.165718600154	0.100028499960899
79972	100	79	stimuli/animals/eagle/animal_eagle09.jpg         	1	1	1	animal_eagle09.jpg   	animals  	0	eagle     	13	eagle09     	138	alive    	1	moves	1	natural 	1	n	0	0        	 	0.0	0	169.215707400348	169.315713400021	0.100005999673158
85056	100	80	stimuli/plant2/lemontree/plant_lemontree09.jpg   	1	2	1	plant_lemontree09.jpg	plant2   	7	lemontree 	22	lemontree09 	228	alive    	1	still	0	natural 	1	n	0	0        	 	0.0	0	174.299192999955	174.399155599996	0.0999626000411808
85206	100	81	stimuli/animals/dog/animal_dog04.jpg             	1	2	1	animal_dog04.jpg     	animals  	0	dog       	11	dog04       	113	alive    	1	moves	1	natural 	1	n	0	0        	 	0.0	0	174.449170200154	174.549173400272	0.100003200117499
85356	100	82	stimuli/plant2/moss/plant_moss08.jpg             	1	2	1	plant_moss08.jpg     	plant2   	7	moss      	25	moss08      	257	alive    	1	still	0	natural 	1	n	0	0        	 	0.0	0	174.599185600411	174.699163800105	0.0999781996943057
85506	100	83	stimuli/plant2/palmtree/plant_palmtree07.jpg     	1	2	1	plant_palmtree07.jpg 	plant2   	7	palmtree  	27	palmtree07  	276	alive    	1	still	0	natural 	1	n	0	0        	 	0.0	0	174.74919590028	174.849163200241	0.0999672999605536
85656	100	84	stimuli/animals2/pigeon/animal_pigeon02.jpg      	1	2	1	animal_pigeon02.jpg  	animals2 	1	pigeon    	28	pigeon02    	281	alive    	1	moves	1	natural 	1	n	0	0        	 	0.0	0	174.899175000377	174.999184700195	0.100009699817747
85806	100	85	stimuli/nonmovArt/mug/nma_mug10.jpg              	1	2	1	nma_mug10.jpg        	nonmovArt	4	mug       	26	mug10       	269	not_alive	0	still	0	artefact	0	n	0	0        	 	0.0	0	175.04917980032	175.149172500242	0.0999926999211311
85956	100	86	stimuli/movArt/bus/ma_bus10.jpg                  	1	2	1	ma_bus10.jpg         	movArt   	2	bus       	3	bus10       	39	not_alive	0	moves	1	artefact	0	n	0	0        	 	0.0	0	175.199197500013	175.299178000074	0.099980500061065
86106	100	87	stimuli/movArt/train/ma_train04.jpg              	1	2	1	ma_train04.jpg       	movArt   	2	train     	34	train04     	343	not_alive	0	moves	1	artefact	0	n	0	0        	 	0.0	0	175.349202100188	175.449195200112	0.0999930999241769
86256	100	88	stimuli/nonmovArt/headphones/nma_headphones09.jpg	1	2	1	nma_headphones09.jpg 	nonmovArt	4	headphones	18	headphones09	188	not_alive	0	still	0	artefact	0	n	0	0        	 	0.0	0	175.499204799999	175.599183000159	0.099978200159967
86406	100	89	stimuli/nonmovNat/shell/nmn_shell08.jpg          	1	2	1	nmn_shell08.jpg      	nonmovNat	5	shell     	32	shell08     	327	not_alive	0	still	0	natural 	1	n	0	0        	 	0.0	0	175.649195699953	175.749202500097	0.100006800144911
86556	100	90	stimuli/nonmovNat/sand/nmn_sand06.jpg            	1	2	1	nmn_sand06.jpg       	nonmovNat	5	sand      	31	sand06      	315	not_alive	0	still	0	natural 	1	n	0	0        	 	0.0	0	175.799199700356	175.899192900397	0.0999932000413537
86706	100	91	stimuli/animals2/pigeon/animal_pigeon04.jpg      	1	2	1	animal_pigeon04.jpg  	animals2 	1	pigeon    	28	pigeon04    	283	alive    	1	moves	1	natural 	1	n	0	0        	 	0.0	0	175.949200100265	176.049210800324	0.100010700058192
86856	100	92	stimuli/movNat/waterfall/mn_waterfall05.jpg      	1	2	1	mn_waterfall05.jpg   	movNat   	3	waterfall 	37	waterfall05 	374	not_alive	0	moves	1	natural 	1	n	0	0        	 	0.0	0	176.099207800347	176.199199000373	0.0999912000261247
87006	100	93	stimuli/animals/dog/animal_dog04.jpg             	1	2	1	animal_dog04.jpg     	animals  	0	dog       	11	dog04       	113	alive    	1	moves	1	natural 	1	n	0	0        	 	0.0	0	176.249209100381	176.349204600323	0.0999954999424517
87156	100	94	stimuli/nonmovNat/rock/nmn_rock03.jpg            	1	2	1	nmn_rock03.jpg       	nonmovNat	5	rock      	30	rock03      	302	not_alive	0	still	0	natural 	1	n	0	0        	 	0.0	0	176.399215800222	176.499209400266	0.0999936000443995
87306	100	95	stimuli/plant2/clover/plant_clover01.jpg         	1	2	1	plant_clover01.jpg   	plant2   	7	clover    	9	clover01    	90	alive    	1	still	0	natural 	1	n	0	0        	 	0.0	0	176.549236200284	176.649207900278	0.0999716999940574
87456	100	96	stimuli/plant/tree/plant_tree08.jpg              	1	2	1	plant_tree08.jpg     	plant    	6	tree      	35	tree08      	357	alive    	1	still	0	natural 	1	n	0	0        	 	0.0	0	176.699218100402	176.799229600001	0.100011499598622
87606	100	97	stimuli/nonmovArt/bench/nma_bench04.jpg          	1	2	1	nma_bench04.jpg      	nonmovArt	4	bench     	1	bench04     	13	not_alive	0	still	0	artefact	0	n	0	0        	 	0.0	0	176.849243800156	176.94923690008	0.0999930999241769
87756	100	98	stimuli/nonmovArt/clothespeg/nma_clothespeg09.jpg	1	2	1	nma_clothespeg09.jpg 	nonmovArt	4	clothespeg	8	clothespeg09	88	not_alive	0	still	0	artefact	0	n	0	0        	 	0.0	0	176.999224300031	177.099218800198	0.0999945001676679
87906	100	99	stimuli/movNat/waterfall/mn_waterfall10.jpg      	1	2	1	mn_waterfall10.jpg   	movNat   	3	waterfall 	37	waterfall10 	379	not_alive	0	moves	1	natural 	1	n	0	0        	 	0.0	0	177.149244100321	177.249239800032	0.099995699711144
88056	100	100	stimuli/plant/cactus/plant_cactus10.jpg          	1	2	1	plant_cactus10.jpg   	plant    	6	cactus    	4	cactus10    	49	alive    	1	still	0	natural 	1	n	1	0        	 	0.0	0	177.299231800251	177.399240300059	0.100008499808609
88206	100	101	stimuli/movArt/train/ma_train02.jpg              	1	2	1	ma_train02.jpg       	movArt   	2	train     	34	train02     	341	not_alive	0	moves	1	artefact	0	n	0	1        	f	0.25019899988547	1	177.449251700193	177.549233800266	0.0999821000732482
88356	100	102	stimuli/movNat/waves/mn_waves09.jpg              	1	2	1	mn_waves09.jpg       	movNat   	3	waves     	38	waves09     	388	not_alive	0	moves	1	natural 	1	n	0	0        	 	0.0	0	177.599235900212	177.699223900214	0.0999880000017583
88506	100	103	stimuli/animals2/lemur/animal_lemur03.jpg        	1	2	1	animal_lemur03.jpg   	animals2 	1	lemur     	23	lemur03     	232	alive    	1	moves	1	natural 	1	n	0	0        	 	0.0	0	177.749230300076	177.84922460001	0.0999942999333143
88656	100	104	stimuli/movNat/fire/mn_fire07.jpg                	1	2	1	mn_fire07.jpg        	movNat   	3	fire      	15	fire07      	156	not_alive	0	moves	1	natural 	1	n	0	0        	 	0.0	0	177.899248600006	177.999228900298	0.0999803002923727
88806	100	105	stimuli/movArt/helicopter/ma_helicopter10.jpg    	1	2	1	ma_helicopter10.jpg  	movArt   	2	helicopter	19	helicopter10	199	not_alive	0	moves	1	artefact	0	n	0	0        	 	0.0	0	178.049239800312	178.14923610026	0.0999962999485433
88956	100	106	stimuli/movNat/hotspring/mn_hotspring10.jpg      	1	2	1	mn_hotspring10.jpg   	movNat   	3	hotspring 	21	hotspring10 	219	not_alive	0	moves	1	natural 	1	n	0	0        	 	0.0	0	178.199241000228	178.299240900204	0.0999998999759555
89106	100	107	stimuli/nonmovNat/crystal/nmn_crystal04.jpg      	1	2	1	nmn_crystal04.jpg    	nonmovNat	5	crystal   	10	crystal04   	103	not_alive	0	still	0	natural 	1	n	0	0        	 	0.0	0	178.34925050009	178.449240100104	0.0999896000139415
89256	100	108	stimuli/nonmovArt/clothespeg/nma_clothespeg06.jpg	1	2	1	nma_clothespeg06.jpg 	nonmovArt	4	clothespeg	8	clothespeg06	85	not_alive	0	still	0	artefact	0	n	0	0        	 	0.0	0	178.499249500223	178.599244400393	0.0999949001707137
89406	100	109	stimuli/plant/flower/plant_flower06.jpg          	1	2	1	plant_flower06.jpg   	plant    	6	flower    	16	flower06    	165	alive    	1	still	0	natural 	1	n	1	0        	 	0.0	0	178.64925300004	178.749247100204	0.0999941001646221
89556	100	110	stimuli/animals2/lemur/animal_lemur10.jpg        	1	2	1	animal_lemur10.jpg   	animals2 	1	lemur     	23	lemur10     	239	alive    	1	moves	1	natural 	1	n	0	1        	f	0.259075600188226	1	178.799254500307	178.899255200289	0.100000699982047
89706	100	111	stimuli/animals/dolphin/animal_dolphin02.jpg     	1	2	1	animal_dolphin02.jpg 	animals  	0	dolphin   	12	dolphin02   	121	alive    	1	moves	1	natural 	1	n	0	0        	 	0.0	0	178.949276100378	179.049283500295	0.100007399916649
89856	100	112	stimuli/movNat/waterfall/mn_waterfall02.jpg      	1	2	1	mn_waterfall02.jpg   	movNat   	3	waterfall 	37	waterfall02 	371	not_alive	0	moves	1	natural 	1	n	0	0        	 	0.0	0	179.099277000409	179.199284300208	0.100007299799472
90006	100	113	stimuli/movArt/helicopter/ma_helicopter02.jpg    	1	2	1	ma_helicopter02.jpg  	movArt   	2	helicopter	19	helicopter02	191	not_alive	0	moves	1	artefact	0	n	0	0        	 	0.0	0	179.249279000331	179.349288300145	0.100009299814701
90156	100	114	stimuli/plant2/palmtree/plant_palmtree10.jpg     	1	2	1	plant_palmtree10.jpg 	plant2   	7	palmtree  	27	palmtree10  	279	alive    	1	still	0	natural 	1	n	0	0        	 	0.0	0	179.399281600025	179.499279899988	0.0999982999637723
90306	100	115	stimuli/animals2/whale/animal_whale06.jpg        	1	2	1	animal_whale06.jpg   	animals2 	1	whale     	39	whale06     	395	alive    	1	moves	1	natural 	1	n	0	0        	 	0.0	0	179.549302800093	179.649280200247	0.0999774001538754
90456	100	116	stimuli/nonmovNat/sand/nmn_sand02.jpg            	1	2	1	nmn_sand02.jpg       	nonmovNat	5	sand      	31	sand02      	311	not_alive	0	still	0	natural 	1	n	0	0        	 	0.0	0	179.699290900026	179.799300400075	0.100009500049055
90606	100	117	stimuli/movArt/boat/ma_boat05.jpg                	1	2	1	ma_boat05.jpg        	movArt   	2	boat      	2	boat05      	24	not_alive	0	moves	1	artefact	0	n	0	0        	 	0.0	0	179.849294300191	179.949287100229	0.0999928000383079
90756	100	118	stimuli/plant/vine/plant_vine09.jpg              	1	2	1	plant_vine09.jpg     	plant    	6	vine      	36	vine09      	368	alive    	1	still	0	natural 	1	n	0	0        	 	0.0	0	179.999303100165	180.099307400174	0.100004300009459
90906	100	119	stimuli/nonmovArt/headphones/nma_headphones04.jpg	1	2	1	nma_headphones04.jpg 	nonmovArt	4	headphones	18	headphones04	183	not_alive	0	still	0	artefact	0	n	0	0        	 	0.0	0	180.149316200055	180.249294800218	0.0999786001630127
91056	100	120	stimuli/movNat/river/mn_river08.jpg              	1	2	1	mn_river08.jpg       	movNat   	3	river     	29	river08     	297	not_alive	0	moves	1	natural 	1	n	0	0        	 	0.0	0	180.299308900256	180.399300100282	0.0999912000261247
91206	100	121	stimuli/plant/tree/plant_tree09.jpg              	1	2	1	plant_tree09.jpg     	plant    	6	tree      	35	tree09      	358	alive    	1	still	0	natural 	1	n	0	0        	 	0.0	0	180.449309700169	180.549322400242	0.100012700073421
91356	100	122	stimuli/animals/dog/animal_dog01.jpg             	1	2	1	animal_dog01.jpg     	animals  	0	dog       	11	dog01       	110	alive    	1	moves	1	natural 	1	n	0	0        	 	0.0	0	180.599325499963	180.69932070002	0.0999952000565827
91506	100	123	stimuli/plant2/palmtree/plant_palmtree09.jpg     	1	2	1	plant_palmtree09.jpg 	plant2   	7	palmtree  	27	palmtree09  	278	alive    	1	still	0	natural 	1	n	0	0        	 	0.0	0	180.749315000139	180.849311100319	0.0999961001798511
91656	100	124	stimuli/animals2/whale/animal_whale05.jpg        	1	2	1	animal_whale05.jpg   	animals2 	1	whale     	39	whale05     	394	alive    	1	moves	1	natural 	1	n	0	0        	 	0.0	0	180.899317800067	180.999315500259	0.0999977001920342
91806	100	125	stimuli/animals2/pigeon/animal_pigeon05.jpg      	1	2	1	animal_pigeon05.jpg  	animals2 	1	pigeon    	28	pigeon05    	284	alive    	1	moves	1	natural 	1	n	0	0        	 	0.0	0	181.049340700265	181.149318899959	0.0999781996943057
91956	100	126	stimuli/animals/dolphin/animal_dolphin09.jpg     	1	2	1	animal_dolphin09.jpg 	animals  	0	dolphin   	12	dolphin09   	128	alive    	1	moves	1	natural 	1	n	0	0        	 	0.0	0	181.199342800304	181.299336200114	0.099993399810046
92106	100	127	stimuli/animals2/lemur/animal_lemur03.jpg        	1	2	1	animal_lemur03.jpg   	animals2 	1	lemur     	23	lemur03     	232	alive    	1	moves	1	natural 	1	n	0	0        	 	0.0	0	181.34933080012	181.449323600158	0.0999928000383079
92256	100	128	stimuli/nonmovArt/bench/nma_bench04.jpg          	1	2	1	nma_bench04.jpg      	nonmovArt	4	bench     	1	bench04     	13	not_alive	0	still	0	artefact	0	n	0	0        	 	0.0	0	181.499335100409	181.599344900344	0.100009799934924
92406	100	129	stimuli/animals/horse/animal_horse07.jpg         	1	2	1	animal_horse07.jpg   	animals  	0	horse     	20	horse07     	206	alive    	1	moves	1	natural 	1	n	0	0        	 	0.0	0	181.649352600332	181.749346700031	0.0999940996989608
92556	100	130	stimuli/plant2/lemontree/plant_lemontree05.jpg   	1	2	1	plant_lemontree05.jpg	plant2   	7	lemontree 	22	lemontree05 	224	alive    	1	still	0	natural 	1	n	0	0        	 	0.0	0	181.799356500152	181.89934750041	0.0999910002574325
92706	100	131	stimuli/animals/horse/animal_horse06.jpg         	1	2	1	animal_horse06.jpg   	animals  	0	horse     	20	horse06     	205	alive    	1	moves	1	natural 	1	n	0	0        	 	0.0	0	181.949363100342	182.049351700116	0.0999885997734964
92856	100	132	stimuli/animals2/bee/animal_bee01.jpg            	1	2	1	animal_bee01.jpg     	animals2 	1	bee       	0	bee01       	0	alive    	1	moves	1	natural 	1	n	0	0        	 	0.0	0	182.099361000117	182.199353900272	0.0999929001554847
93006	100	133	stimuli/movArt/boat/ma_boat04.jpg                	1	2	1	ma_boat04.jpg        	movArt   	2	boat      	2	boat04      	23	not_alive	0	moves	1	artefact	0	n	0	0        	 	0.0	0	182.24935659999	182.349353300408	0.0999967004172504
93156	100	134	stimuli/plant2/lemontree/plant_lemontree07.jpg   	1	2	1	plant_lemontree07.jpg	plant2   	7	lemontree 	22	lemontree07 	226	alive    	1	still	0	natural 	1	n	0	0        	 	0.0	0	182.399359800387	182.499369500205	0.100009699817747
93306	100	135	stimuli/nonmovArt/lock/nma_lock08.jpg            	1	2	1	nma_lock08.jpg       	nonmovArt	4	lock      	24	lock08      	247	not_alive	0	still	0	artefact	0	n	0	0        	 	0.0	0	182.549386000261	182.649380899966	0.0999948997050524
93456	100	136	stimuli/movNat/hotspring/mn_hotspring04.jpg      	1	2	1	mn_hotspring04.jpg   	movNat   	3	hotspring 	21	hotspring04 	213	not_alive	0	moves	1	natural 	1	n	0	0        	 	0.0	0	182.69936970016	182.799362299964	0.0999925998039544
93606	100	137	stimuli/animals/cat/animal_cat01.jpg             	1	2	1	animal_cat01.jpg     	animals  	0	cat       	6	cat01       	60	alive    	1	moves	1	natural 	1	n	0	0        	 	0.0	0	182.849375100341	182.949368200265	0.0999930999241769
93756	100	138	stimuli/animals/dolphin/animal_dolphin05.jpg     	1	2	1	animal_dolphin05.jpg 	animals  	0	dolphin   	12	dolphin05   	124	alive    	1	moves	1	natural 	1	n	0	0        	 	0.0	0	182.999393700156	183.099369900301	0.099976200144738
93906	100	139	stimuli/plant/grass/plant_grass02.jpg            	1	2	1	plant_grass02.jpg    	plant    	6	grass     	17	grass02     	171	alive    	1	still	0	natural 	1	n	0	0        	 	0.0	0	183.149383100215	183.249370700214	0.0999875999987125
94056	100	140	stimuli/nonmovNat/rock/nmn_rock02.jpg            	1	2	1	nmn_rock02.jpg       	nonmovNat	5	rock      	30	rock02      	301	not_alive	0	still	0	natural 	1	n	0	0        	 	0.0	0	183.299376000185	183.399369200226	0.0999932000413537
94206	100	141	stimuli/plant2/palmtree/plant_palmtree09.jpg     	1	2	1	plant_palmtree09.jpg 	plant2   	7	palmtree  	27	palmtree09  	278	alive    	1	still	0	natural 	1	n	0	0        	 	0.0	0	183.449396500364	183.549375100061	0.0999785996973515
94356	100	142	stimuli/animals/eagle/animal_eagle04.jpg         	1	2	1	animal_eagle04.jpg   	animals  	0	eagle     	13	eagle04     	133	alive    	1	moves	1	natural 	1	n	0	0        	 	0.0	0	183.599384100176	183.699394000228	0.1000099000521
94506	100	143	stimuli/movArt/boat/ma_boat04.jpg                	1	2	1	ma_boat04.jpg        	movArt   	2	boat      	2	boat04      	23	not_alive	0	moves	1	artefact	0	n	0	0        	 	0.0	0	183.749404600356	183.849381500389	0.0999769000336528
94656	100	144	stimuli/movArt/train/ma_train10.jpg              	1	2	1	ma_train10.jpg       	movArt   	2	train     	34	train10     	349	not_alive	0	moves	1	artefact	0	n	0	0        	 	0.0	0	183.899393900298	183.999385100324	0.0999912000261247
94806	100	145	stimuli/nonmovNat/shell/nmn_shell03.jpg          	1	2	1	nmn_shell03.jpg      	nonmovNat	5	shell     	32	shell03     	322	not_alive	0	still	0	natural 	1	n	0	0        	 	0.0	0	184.049396200106	184.149402700365	0.100006500259042
94956	100	146	stimuli/movArt/car/ma_car02.jpg                  	1	2	1	ma_car02.jpg         	movArt   	2	car       	5	car02       	51	not_alive	0	moves	1	artefact	0	n	0	0        	 	0.0	0	184.199398500379	184.299392600078	0.0999940996989608
95106	100	147	stimuli/nonmovNat/sand/nmn_sand03.jpg            	1	2	1	nmn_sand03.jpg       	nonmovNat	5	sand      	31	sand03      	312	not_alive	0	still	0	natural 	1	n	0	0        	 	0.0	0	184.349418700207	184.44939510012	0.0999763999134302
95256	100	148	stimuli/nonmovArt/headphones/nma_headphones08.jpg	1	2	1	nma_headphones08.jpg 	nonmovArt	4	headphones	18	headphones08	187	not_alive	0	still	0	artefact	0	n	0	0        	 	0.0	0	184.499420900363	184.599399100058	0.0999781996943057
95406	100	149	stimuli/animals2/lemur/animal_lemur06.jpg        	1	2	1	animal_lemur06.jpg   	animals2 	1	lemur     	23	lemur06     	235	alive    	1	moves	1	natural 	1	n	0	0        	 	0.0	0	184.649424700066	184.749421800021	0.0999970999546349
95556	100	150	stimuli/nonmovNat/cliff/nmn_cliff09.jpg          	1	2	1	nmn_cliff09.jpg      	nonmovNat	5	cliff     	7	cliff09     	78	not_alive	0	still	0	natural 	1	n	0	0        	 	0.0	0	184.79941680003	184.899422800168	0.100006000138819
95706	100	151	stimuli/movNat/waves/mn_waves05.jpg              	1	2	1	mn_waves05.jpg       	movNat   	3	waves     	38	waves05     	384	not_alive	0	moves	1	natural 	1	n	0	0        	 	0.0	0	184.949432400055	185.04941159999	0.0999791999347508
95856	100	152	stimuli/movArt/train/ma_train06.jpg              	1	2	1	ma_train06.jpg       	movArt   	2	train     	34	train06     	345	not_alive	0	moves	1	artefact	0	n	0	0        	 	0.0	0	185.099437800236	185.199428900145	0.0999910999089479
96006	100	153	stimuli/plant/cactus/plant_cactus01.jpg          	1	2	1	plant_cactus01.jpg   	plant    	6	cactus    	4	cactus01    	40	alive    	1	still	0	natural 	1	n	0	0        	 	0.0	0	185.249425500166	185.349420400336	0.0999949001707137
96156	100	154	stimuli/animals2/bee/animal_bee04.jpg            	1	2	1	animal_bee04.jpg     	animals2 	1	bee       	0	bee04       	3	alive    	1	moves	1	natural 	1	n	0	0        	 	0.0	0	185.399432200007	185.499436000362	0.100003800354898
96306	100	155	stimuli/movArt/helicopter/ma_helicopter06.jpg    	1	2	1	ma_helicopter06.jpg  	movArt   	2	helicopter	19	helicopter06	195	not_alive	0	moves	1	artefact	0	n	0	0        	 	0.0	0	185.54943220038	185.649442700204	0.100010499823838
96456	100	156	stimuli/movNat/hotspring/mn_hotspring05.jpg      	1	2	1	mn_hotspring05.jpg   	movNat   	3	hotspring 	21	hotspring05 	214	not_alive	0	moves	1	natural 	1	n	0	0        	 	0.0	0	185.699435000308	185.799427700229	0.0999926999211311
96606	100	157	stimuli/plant2/fern/plant_fern07.jpg             	1	2	1	plant_fern07.jpg     	plant2   	7	fern      	14	fern07      	146	alive    	1	still	0	natural 	1	n	0	0        	 	0.0	0	185.849438800011	185.949448400177	0.100009600166231
96756	100	158	stimuli/nonmovNat/shell/nmn_shell07.jpg          	1	2	1	nmn_shell07.jpg      	nonmovNat	5	shell     	32	shell07     	326	not_alive	0	still	0	natural 	1	n	0	0        	 	0.0	0	185.999442800414	186.09943650011	0.099993699695915
96906	100	159	stimuli/plant2/clover/plant_clover05.jpg         	1	2	1	plant_clover05.jpg   	plant2   	7	clover    	9	clover05    	94	alive    	1	still	0	natural 	1	n	0	0        	 	0.0	0	186.149445500225	186.249445999972	0.100000499747694
102039	100	160	stimuli/nonmovNat/rock/nmn_rock10.jpg            	1	3	1	nmn_rock10.jpg       	nonmovNat	5	rock      	30	rock10      	309	not_alive	0	still	0	natural 	1	n	0	0        	 	0.0	0	191.282923900057	191.3829043	0.0999803999438882
102189	100	161	stimuli/nonmovArt/headphones/nma_headphones02.jpg	1	3	1	nma_headphones02.jpg 	nonmovArt	4	headphones	18	headphones02	181	not_alive	0	still	0	artefact	0	n	0	0        	 	0.0	0	191.432922600303	191.532920000143	0.0999973998405039
102339	100	162	stimuli/nonmovNat/sand/nmn_sand01.jpg            	1	3	1	nmn_sand01.jpg       	nonmovNat	5	sand      	31	sand01      	310	not_alive	0	still	0	natural 	1	n	0	0        	 	0.0	0	191.582915300038	191.682906000409	0.0999907003715634
102489	100	163	stimuli/plant2/moss/plant_moss07.jpg             	1	3	1	plant_moss07.jpg     	plant2   	7	moss      	25	moss07      	256	alive    	1	still	0	natural 	1	n	0	0        	 	0.0	0	191.732888000086	191.832908099983	0.100020099896938
102639	100	164	stimuli/movNat/fire/mn_fire07.jpg                	1	3	1	mn_fire07.jpg        	movNat   	3	fire      	15	fire07      	156	not_alive	0	moves	1	natural 	1	n	0	0        	 	0.0	0	191.882924000267	191.98291530041	0.0999913001433015
102789	100	165	stimuli/nonmovArt/lock/nma_lock01.jpg            	1	3	1	nma_lock01.jpg       	nonmovArt	4	lock      	24	lock01      	240	not_alive	0	still	0	artefact	0	n	0	0        	 	0.0	0	192.03292130027	192.132918999996	0.099997699726373
102939	100	166	stimuli/movNat/fire/mn_fire08.jpg                	1	3	1	mn_fire08.jpg        	movNat   	3	fire      	15	fire08      	157	not_alive	0	moves	1	natural 	1	n	0	0        	 	0.0	0	192.182933600154	192.282917300239	0.0999837000854313
103089	100	167	stimuli/nonmovNat/sand/nmn_sand05.jpg            	1	3	1	nmn_sand05.jpg       	nonmovNat	5	sand      	31	sand05      	314	not_alive	0	still	0	natural 	1	n	0	0        	 	0.0	0	192.332938200328	192.432938599959	0.100000399630517
103239	100	168	stimuli/nonmovArt/bench/nma_bench01.jpg          	1	3	1	nma_bench01.jpg      	nonmovArt	4	bench     	1	bench01     	10	not_alive	0	still	0	artefact	0	n	0	0        	 	0.0	0	192.48291130038	192.582939899992	0.100028599612415
103389	100	169	stimuli/movNat/river/mn_river06.jpg              	1	3	1	mn_river06.jpg       	movNat   	3	river     	29	river06     	295	not_alive	0	moves	1	natural 	1	n	0	0        	 	0.0	0	192.632950500119	192.732933900319	0.0999834001995623
103539	100	170	stimuli/movArt/bus/ma_bus06.jpg                  	1	3	1	ma_bus06.jpg         	movArt   	2	bus       	3	bus06       	35	not_alive	0	moves	1	artefact	0	n	0	0        	 	0.0	0	192.782939600293	192.882951700129	0.100012099836022
103689	100	171	stimuli/nonmovArt/mug/nma_mug03.jpg              	1	3	1	nma_mug03.jpg        	nonmovArt	4	mug       	26	mug03       	262	not_alive	0	still	0	artefact	0	n	0	0        	 	0.0	0	192.932947400026	193.032935100142	0.0999877001158893
103839	100	172	stimuli/animals2/lemur/animal_lemur06.jpg        	1	3	1	animal_lemur06.jpg   	animals2 	1	lemur     	23	lemur06     	235	alive    	1	moves	1	natural 	1	n	0	0        	 	0.0	0	193.082946700044	193.182939900085	0.0999932000413537
103989	100	173	stimuli/animals2/tiger/animal_tiger09.jpg        	1	3	1	animal_tiger09.jpg   	animals2 	1	tiger     	33	tiger09     	338	alive    	1	moves	1	natural 	1	n	0	0        	 	0.0	0	193.232978000306	193.332959300373	0.0999813000671566
104139	100	174	stimuli/animals/dog/animal_dog01.jpg             	1	3	1	animal_dog01.jpg     	animals  	0	dog       	11	dog01       	110	alive    	1	moves	1	natural 	1	n	0	0        	 	0.0	0	193.382950800005	193.482966100331	0.100015300326049
104289	100	175	stimuli/plant/cactus/plant_cactus03.jpg          	1	3	1	plant_cactus03.jpg   	plant    	6	cactus    	4	cactus03    	42	alive    	1	still	0	natural 	1	n	0	0        	 	0.0	0	193.532971200068	193.632954700384	0.0999835003167391
104439	100	176	stimuli/nonmovNat/crystal/nmn_crystal02.jpg      	1	3	1	nmn_crystal02.jpg    	nonmovNat	5	crystal   	10	crystal02   	101	not_alive	0	still	0	natural 	1	n	0	0        	 	0.0	0	193.682975600008	193.782971000299	0.0999954002909362
104589	100	177	stimuli/animals/dog/animal_dog03.jpg             	1	3	1	animal_dog03.jpg     	animals  	0	dog       	11	dog03       	112	alive    	1	moves	1	natural 	1	n	0	0        	 	0.0	0	193.832965000067	193.93295980012	0.0999948000535369
104739	100	178	stimuli/plant/flower/plant_flower08.jpg          	1	3	1	plant_flower08.jpg   	plant    	6	flower    	16	flower08    	167	alive    	1	still	0	natural 	1	n	0	0        	 	0.0	0	193.982995700091	194.082982700318	0.0999870002269745
104889	100	179	stimuli/animals2/tiger/animal_tiger07.jpg        	1	3	1	animal_tiger07.jpg   	animals2 	1	tiger     	33	tiger07     	336	alive    	1	moves	1	natural 	1	n	0	0        	 	0.0	0	194.132972000167	194.232980600093	0.100008599925786
105039	100	180	stimuli/movArt/train/ma_train09.jpg              	1	3	1	ma_train09.jpg       	movArt   	2	train     	34	train09     	348	not_alive	0	moves	1	artefact	0	n	0	0        	 	0.0	0	194.282974699978	194.382965500001	0.0999908000230789
105189	100	181	stimuli/plant/vine/plant_vine06.jpg              	1	3	1	plant_vine06.jpg     	plant    	6	vine      	36	vine06      	365	alive    	1	still	0	natural 	1	n	0	0        	 	0.0	0	194.432978000026	194.53299170034	0.100013700313866
105339	100	182	stimuli/animals/horse/animal_horse02.jpg         	1	3	1	animal_horse02.jpg   	animals  	0	horse     	20	horse02     	201	alive    	1	moves	1	natural 	1	n	0	0        	 	0.0	0	194.582989300136	194.682975100353	0.0999858002178371
105489	100	183	stimuli/plant2/palmtree/plant_palmtree05.jpg     	1	3	1	plant_palmtree05.jpg 	plant2   	7	palmtree  	27	palmtree05  	274	alive    	1	still	0	natural 	1	n	0	0        	 	0.0	0	194.732987000141	194.832979300059	0.0999922999180853
105639	100	184	stimuli/animals2/bee/animal_bee03.jpg            	1	3	1	animal_bee03.jpg     	animals2 	1	bee       	0	bee03       	2	alive    	1	moves	1	natural 	1	n	0	0        	 	0.0	0	194.88300599996	194.982998100109	0.0999921001493931
105789	100	185	stimuli/movArt/bus/ma_bus09.jpg                  	1	3	1	ma_bus09.jpg         	movArt   	2	bus       	3	bus09       	38	not_alive	0	moves	1	artefact	0	n	1	0        	 	0.0	0	195.032995800022	195.133008900099	0.100013100076467
105939	100	186	stimuli/plant/cactus/plant_cactus06.jpg          	1	3	1	plant_cactus06.jpg   	plant    	6	cactus    	4	cactus06    	45	alive    	1	still	0	natural 	1	n	0	1        	f	0.250193600077182	1	195.183012700174	195.283027200028	0.100014499854296
106089	100	187	stimuli/plant2/lemontree/plant_lemontree05.jpg   	1	3	1	plant_lemontree05.jpg	plant2   	7	lemontree 	22	lemontree05 	224	alive    	1	still	0	natural 	1	n	0	0        	 	0.0	0	195.333016800229	195.432984900195	0.0999680999666452
106239	100	188	stimuli/animals/eagle/animal_eagle02.jpg         	1	3	1	animal_eagle02.jpg   	animals  	0	eagle     	13	eagle02     	131	alive    	1	moves	1	natural 	1	n	0	0        	 	0.0	0	195.483004000038	195.583018200006	0.100014199968427
106389	100	189	stimuli/plant2/fern/plant_fern04.jpg             	1	3	1	plant_fern04.jpg     	plant2   	7	fern      	14	fern04      	143	alive    	1	still	0	natural 	1	n	0	0        	 	0.0	0	195.633021600079	195.733017200138	0.0999956000596285
106539	100	190	stimuli/animals/eagle/animal_eagle06.jpg         	1	3	1	animal_eagle06.jpg   	animals  	0	eagle     	13	eagle06     	135	alive    	1	moves	1	natural 	1	n	0	0        	 	0.0	0	195.783028000034	195.883020299952	0.0999922999180853
106689	100	191	stimuli/movArt/boat/ma_boat07.jpg                	1	3	1	ma_boat07.jpg        	movArt   	2	boat      	2	boat07      	26	not_alive	0	moves	1	artefact	0	n	0	0        	 	0.0	0	195.933028700296	196.033024400007	0.099995699711144
106839	100	192	stimuli/nonmovNat/crystal/nmn_crystal08.jpg      	1	3	1	nmn_crystal08.jpg    	nonmovNat	5	crystal   	10	crystal08   	107	not_alive	0	still	0	natural 	1	n	1	0        	 	0.0	0	196.083033800125	196.182995200157	0.0999614000320435
106989	100	193	stimuli/plant/flower/plant_flower09.jpg          	1	3	1	plant_flower09.jpg   	plant    	6	flower    	16	flower09    	168	alive    	1	still	0	natural 	1	n	0	0        	 	0.0	0	196.233039100189	196.333015100099	0.0999759999103844
107139	100	194	stimuli/movArt/car/ma_car02.jpg                  	1	3	1	ma_car02.jpg         	movArt   	2	car       	5	car02       	51	not_alive	0	moves	1	artefact	0	n	0	1        	f	0.391953099984676	1	196.383024800103	196.483022600412	0.099997800309211
107289	100	195	stimuli/movNat/river/mn_river05.jpg              	1	3	1	mn_river05.jpg       	movNat   	3	river     	29	river05     	294	not_alive	0	moves	1	natural 	1	n	0	0        	 	0.0	0	196.533032600302	196.633039100096	0.10000649979338
107439	100	196	stimuli/nonmovArt/clothespeg/nma_clothespeg05.jpg	1	3	1	nma_clothespeg05.jpg 	nonmovArt	4	clothespeg	8	clothespeg05	84	not_alive	0	still	0	artefact	0	n	0	0        	 	0.0	0	196.683031599969	196.78303500032	0.100003400351852
107589	100	197	stimuli/nonmovNat/cliff/nmn_cliff06.jpg          	1	3	1	nmn_cliff06.jpg      	nonmovNat	5	cliff     	7	cliff06     	75	not_alive	0	still	0	natural 	1	n	0	0        	 	0.0	0	196.833052600268	196.93304580031	0.0999932000413537
107739	100	198	stimuli/nonmovNat/crystal/nmn_crystal02.jpg      	1	3	1	nmn_crystal02.jpg    	nonmovNat	5	crystal   	10	crystal02   	101	not_alive	0	still	0	natural 	1	n	0	0        	 	0.0	0	196.983040000312	197.083031900227	0.0999918999150395
107889	100	199	stimuli/nonmovArt/clothespeg/nma_clothespeg03.jpg	1	3	1	nma_clothespeg03.jpg 	nonmovArt	4	clothespeg	8	clothespeg03	82	not_alive	0	still	0	artefact	0	n	0	0        	 	0.0	0	197.133044600021	197.233050900046	0.100006300024688
108039	100	200	stimuli/nonmovArt/mug/nma_mug06.jpg              	1	3	1	nma_mug06.jpg        	nonmovArt	4	mug       	26	mug06       	265	not_alive	0	still	0	artefact	0	n	0	0        	 	0.0	0	197.283027600031	197.383058900014	0.10003129998222
108189	100	201	stimuli/animals/dolphin/animal_dolphin10.jpg     	1	3	1	animal_dolphin10.jpg 	animals  	0	dolphin   	12	dolphin10   	129	alive    	1	moves	1	natural 	1	n	0	0        	 	0.0	0	197.433050800115	197.533047100063	0.0999962999485433
108339	100	202	stimuli/plant2/fern/plant_fern01.jpg             	1	3	1	plant_fern01.jpg     	plant2   	7	fern      	14	fern01      	140	alive    	1	still	0	natural 	1	n	0	0        	 	0.0	0	197.583075399976	197.683083000127	0.100007600151002
108489	100	203	stimuli/plant/grass/plant_grass04.jpg            	1	3	1	plant_grass04.jpg    	plant    	6	grass     	17	grass04     	173	alive    	1	still	0	natural 	1	n	0	0        	 	0.0	0	197.733059100341	197.833051100373	0.0999920000322163
108639	100	204	stimuli/plant/grass/plant_grass03.jpg            	1	3	1	plant_grass03.jpg    	plant    	6	grass     	17	grass03     	172	alive    	1	still	0	natural 	1	n	0	0        	 	0.0	0	197.883060800377	197.983055900317	0.0999950999394059
108789	100	205	stimuli/nonmovNat/shell/nmn_shell07.jpg          	1	3	1	nmn_shell07.jpg      	nonmovNat	5	shell     	32	shell07     	326	not_alive	0	still	0	natural 	1	n	0	0        	 	0.0	0	198.033067600336	198.133059300017	0.099991699680686
108939	100	206	stimuli/plant2/clover/plant_clover06.jpg         	1	3	1	plant_clover06.jpg   	plant2   	7	clover    	9	clover06    	95	alive    	1	still	0	natural 	1	n	0	0        	 	0.0	0	198.183068800252	198.283075800166	0.100006999913603
109089	100	207	stimuli/nonmovArt/clothespeg/nma_clothespeg02.jpg	1	3	1	nma_clothespeg02.jpg 	nonmovArt	4	clothespeg	8	clothespeg02	81	not_alive	0	still	0	artefact	0	n	0	0        	 	0.0	0	198.333090600092	198.433064500336	0.09997390024364
109239	100	208	stimuli/movNat/waterfall/mn_waterfall06.jpg      	1	3	1	mn_waterfall06.jpg   	movNat   	3	waterfall 	37	waterfall06 	375	not_alive	0	moves	1	natural 	1	n	0	0        	 	0.0	0	198.483092200011	198.583068900276	0.0999767002649605
109389	100	209	stimuli/movNat/waterfall/mn_waterfall05.jpg      	1	3	1	mn_waterfall05.jpg   	movNat   	3	waterfall 	37	waterfall05 	374	not_alive	0	moves	1	natural 	1	n	0	0        	 	0.0	0	198.633084299974	198.733089500107	0.100005200132728
109539	100	210	stimuli/animals2/tiger/animal_tiger10.jpg        	1	3	1	animal_tiger10.jpg   	animals2 	1	tiger     	33	tiger10     	339	alive    	1	moves	1	natural 	1	n	0	0        	 	0.0	0	198.783111900091	198.883077200036	0.0999652999453247
109689	100	211	stimuli/nonmovNat/rock/nmn_rock10.jpg            	1	3	1	nmn_rock10.jpg       	nonmovNat	5	rock      	30	rock10      	309	not_alive	0	still	0	natural 	1	n	0	0        	 	0.0	0	198.933087700047	199.033101500012	0.100013799965382
109839	100	212	stimuli/plant/vine/plant_vine01.jpg              	1	3	1	plant_vine01.jpg     	plant    	6	vine      	36	vine01      	360	alive    	1	still	0	natural 	1	n	1	0        	 	0.0	0	199.08310740022	199.18308860017	0.0999811999499798
109989	100	213	stimuli/nonmovNat/cliff/nmn_cliff09.jpg          	1	3	1	nmn_cliff09.jpg      	nonmovNat	5	cliff     	7	cliff09     	78	not_alive	0	still	0	natural 	1	n	1	0        	 	0.0	0	199.233111100271	199.33310390031	0.0999928000383079
110139	100	214	stimuli/animals2/whale/animal_whale07.jpg        	1	3	1	animal_whale07.jpg   	animals2 	1	whale     	39	whale07     	396	alive    	1	moves	1	natural 	1	n	0	1        	f	0.142061199992895	1	199.383105500136	199.483107200358	0.100001700222492
110289	100	215	stimuli/nonmovArt/headphones/nma_headphones06.jpg	1	3	1	nma_headphones06.jpg 	nonmovArt	4	headphones	18	headphones06	185	not_alive	0	still	0	artefact	0	n	0	0        	 	0.0	0	199.533122900408	199.633093500044	0.0999705996364355
110439	100	216	stimuli/movArt/car/ma_car09.jpg                  	1	3	1	ma_car09.jpg         	movArt   	2	car       	5	car09       	58	not_alive	0	moves	1	artefact	0	n	0	1        	f	0.541974399704486	1	199.683119500056	199.783098900225	0.0999794001691043
110589	100	217	stimuli/plant2/moss/plant_moss06.jpg             	1	3	1	plant_moss06.jpg     	plant2   	7	moss      	25	moss06      	255	alive    	1	still	0	natural 	1	n	0	0        	 	0.0	0	199.833125700243	199.933114500251	0.0999888000078499
110739	100	218	stimuli/plant/tree/plant_tree01.jpg              	1	3	1	plant_tree01.jpg     	plant    	6	tree      	35	tree01      	350	alive    	1	still	0	natural 	1	n	0	0        	 	0.0	0	199.983127100393	200.083117000293	0.0999898998998106
110889	100	219	stimuli/movNat/waves/mn_waves01.jpg              	1	3	1	mn_waves01.jpg       	movNat   	3	waves     	38	waves01     	380	not_alive	0	moves	1	natural 	1	n	0	0        	 	0.0	0	200.133127999958	200.23312270036	0.0999947004020214
111039	100	220	stimuli/movArt/helicopter/ma_helicopter01.jpg    	1	3	1	ma_helicopter01.jpg  	movArt   	2	helicopter	19	helicopter01	190	not_alive	0	moves	1	artefact	0	n	0	0        	 	0.0	0	200.283137900289	200.383123300038	0.09998539974913
111189	100	221	stimuli/animals/cat/animal_cat01.jpg             	1	3	1	animal_cat01.jpg     	animals  	0	cat       	6	cat01       	60	alive    	1	moves	1	natural 	1	n	0	0        	 	0.0	0	200.433135900181	200.533131700009	0.0999957998283207
111339	100	222	stimuli/movNat/waterfall/mn_waterfall05.jpg      	1	3	1	mn_waterfall05.jpg   	movNat   	3	waterfall 	37	waterfall05 	374	not_alive	0	moves	1	natural 	1	n	0	0        	 	0.0	0	200.583149000071	200.683135200292	0.0999862002208829
111489	100	223	stimuli/plant2/clover/plant_clover03.jpg         	1	3	1	plant_clover03.jpg   	plant2   	7	clover    	9	clover03    	92	alive    	1	still	0	natural 	1	n	0	0        	 	0.0	0	200.733142500278	200.833134599961	0.0999920996837318
111639	100	224	stimuli/movArt/helicopter/ma_helicopter09.jpg    	1	3	1	ma_helicopter09.jpg  	movArt   	2	helicopter	19	helicopter09	198	not_alive	0	moves	1	artefact	0	n	0	0        	 	0.0	0	200.883144699968	200.983115100302	0.0999704003334045
111789	100	225	stimuli/nonmovArt/mug/nma_mug04.jpg              	1	3	1	nma_mug04.jpg        	nonmovArt	4	mug       	26	mug04       	263	not_alive	0	still	0	artefact	0	n	0	0        	 	0.0	0	201.033151300158	201.133145899978	0.0999945998191834
111939	100	226	stimuli/plant/flower/plant_flower08.jpg          	1	3	1	plant_flower08.jpg   	plant    	6	flower    	16	flower08    	167	alive    	1	still	0	natural 	1	n	0	0        	 	0.0	0	201.183153199963	201.283145700116	0.0999925001524389
112089	100	227	stimuli/movArt/bus/ma_bus04.jpg                  	1	3	1	ma_bus04.jpg         	movArt   	2	bus       	3	bus04       	33	not_alive	0	moves	1	artefact	0	n	0	0        	 	0.0	0	201.333157600369	201.433151599951	0.099993999581784
112239	100	228	stimuli/movNat/waves/mn_waves09.jpg              	1	3	1	mn_waves09.jpg       	movNat   	3	waves     	38	waves09     	388	not_alive	0	moves	1	natural 	1	n	0	0        	 	0.0	0	201.483158000279	201.583154400345	0.0999964000657201
112390	100	229	stimuli/animals2/whale/animal_whale10.jpg        	1	3	1	animal_whale10.jpg   	animals2 	1	whale     	39	whale10     	399	alive    	1	moves	1	natural 	1	n	0	0        	 	0.0	0	201.633165000007	201.733161600307	0.0999966003000736
112540	100	230	stimuli/animals2/pigeon/animal_pigeon02.jpg      	1	3	1	animal_pigeon02.jpg  	animals2 	1	pigeon    	28	pigeon02    	281	alive    	1	moves	1	natural 	1	n	0	0        	 	0.0	0	201.783167900052	201.883160599973	0.0999926999211311
112690	100	231	stimuli/plant/tree/plant_tree09.jpg              	1	3	1	plant_tree09.jpg     	plant    	6	tree      	35	tree09      	358	alive    	1	still	0	natural 	1	n	0	0        	 	0.0	0	201.933173200116	202.033163200133	0.0999900000169873
112840	100	232	stimuli/movNat/fire/mn_fire09.jpg                	1	3	1	mn_fire09.jpg        	movNat   	3	fire      	15	fire09      	158	not_alive	0	moves	1	natural 	1	n	0	0        	 	0.0	0	202.083176900167	202.183167800307	0.0999909001402557
112990	100	233	stimuli/movNat/hotspring/mn_hotspring08.jpg      	1	3	1	mn_hotspring08.jpg   	movNat   	3	hotspring 	21	hotspring08 	217	not_alive	0	moves	1	natural 	1	n	0	0        	 	0.0	0	202.233178900089	202.333184200339	0.100005300249904
113140	100	234	stimuli/plant/vine/plant_vine10.jpg              	1	3	1	plant_vine10.jpg     	plant    	6	vine      	36	vine10      	369	alive    	1	still	0	natural 	1	n	0	0        	 	0.0	0	202.383185300045	202.483192000072	0.100006700027734
113290	100	235	stimuli/plant2/moss/plant_moss06.jpg             	1	3	1	plant_moss06.jpg     	plant2   	7	moss      	25	moss06      	255	alive    	1	still	0	natural 	1	n	0	0        	 	0.0	0	202.533198500052	202.633175299969	0.099976799916476
113440	100	236	stimuli/animals2/pigeon/animal_pigeon01.jpg      	1	3	1	animal_pigeon01.jpg  	animals2 	1	pigeon    	28	pigeon01    	280	alive    	1	moves	1	natural 	1	n	0	0        	 	0.0	0	202.683200700209	202.783192300238	0.0999916000291705
113590	100	237	stimuli/nonmovArt/bench/nma_bench07.jpg          	1	3	1	nma_bench07.jpg      	nonmovArt	4	bench     	1	bench07     	16	not_alive	0	still	0	artefact	0	n	0	0        	 	0.0	0	202.833193100058	202.933177700266	0.0999846002086997
113740	100	238	stimuli/animals/cat/animal_cat02.jpg             	1	3	1	animal_cat02.jpg     	animals  	0	cat       	6	cat02       	61	alive    	1	moves	1	natural 	1	n	0	0        	 	0.0	0	202.983204900287	203.083185200114	0.0999802998267114
113890	100	239	stimuli/nonmovArt/lock/nma_lock03.jpg            	1	3	1	nma_lock03.jpg       	nonmovArt	4	lock      	24	lock03      	242	not_alive	0	still	0	artefact	0	n	0	0        	 	0.0	0	203.13319300022	203.233191099949	0.0999980997294188
119023	100	240	stimuli/nonmovNat/cliff/nmn_cliff04.jpg          	1	4	1	nmn_cliff04.jpg      	nonmovNat	5	cliff     	7	cliff04     	73	not_alive	0	still	0	natural 	1	n	0	0        	 	0.0	0	208.266662700102	208.366651799995	0.099989099893719
119173	100	241	stimuli/movNat/river/mn_river07.jpg              	1	4	1	mn_river07.jpg       	movNat   	3	river     	29	river07     	296	not_alive	0	moves	1	natural 	1	n	0	0        	 	0.0	0	208.416663500015	208.516658900306	0.0999954002909362
119323	100	242	stimuli/animals/eagle/animal_eagle09.jpg         	1	4	1	animal_eagle09.jpg   	animals  	0	eagle     	13	eagle09     	138	alive    	1	moves	1	natural 	1	n	0	0        	 	0.0	0	208.566666700412	208.666660600342	0.0999938999302685
119473	100	243	stimuli/plant/vine/plant_vine04.jpg              	1	4	1	plant_vine04.jpg     	plant    	6	vine      	36	vine04      	363	alive    	1	still	0	natural 	1	n	0	0        	 	0.0	0	208.716656000353	208.816667100415	0.100011100061238
119623	100	244	stimuli/plant2/moss/plant_moss04.jpg             	1	4	1	plant_moss04.jpg     	plant2   	7	moss      	25	moss04      	253	alive    	1	still	0	natural 	1	n	0	0        	 	0.0	0	208.866661100183	208.966674100142	0.10001299995929
119773	100	245	stimuli/plant2/palmtree/plant_palmtree01.jpg     	1	4	1	plant_palmtree01.jpg 	plant2   	7	palmtree  	27	palmtree01  	270	alive    	1	still	0	natural 	1	n	0	0        	 	0.0	0	209.016679800116	209.116673100274	0.0999933001585305
119923	100	246	stimuli/plant2/fern/plant_fern03.jpg             	1	4	1	plant_fern03.jpg     	plant2   	7	fern      	14	fern03      	142	alive    	1	still	0	natural 	1	n	0	0        	 	0.0	0	209.166667200159	209.266676600091	0.100009399931878
120073	100	247	stimuli/nonmovArt/headphones/nma_headphones04.jpg	1	4	1	nma_headphones04.jpg 	nonmovArt	4	headphones	18	headphones04	183	not_alive	0	still	0	artefact	0	n	0	0        	 	0.0	0	209.316685900092	209.416671600193	0.0999857001006603
120223	100	248	stimuli/animals/dolphin/animal_dolphin09.jpg     	1	4	1	animal_dolphin09.jpg 	animals  	0	dolphin   	12	dolphin09   	128	alive    	1	moves	1	natural 	1	n	0	0        	 	0.0	0	209.466683700215	209.566671800334	0.0999881001189351
120373	100	249	stimuli/movNat/hotspring/mn_hotspring07.jpg      	1	4	1	mn_hotspring07.jpg   	movNat   	3	hotspring 	21	hotspring07 	216	not_alive	0	moves	1	natural 	1	n	0	0        	 	0.0	0	209.616687300149	209.716674200259	0.0999869001097977
120523	100	250	stimuli/nonmovNat/shell/nmn_shell01.jpg          	1	4	1	nmn_shell01.jpg      	nonmovNat	5	shell     	32	shell01     	320	not_alive	0	still	0	natural 	1	n	0	0        	 	0.0	0	209.766685000155	209.866662600078	0.0999775999225676
120673	100	251	stimuli/movArt/train/ma_train02.jpg              	1	4	1	ma_train02.jpg       	movArt   	2	train     	34	train02     	341	not_alive	0	moves	1	artefact	0	n	0	0        	 	0.0	0	209.916673500091	210.016666400246	0.0999929001554847
120823	100	252	stimuli/nonmovArt/headphones/nma_headphones05.jpg	1	4	1	nma_headphones05.jpg 	nonmovArt	4	headphones	18	headphones05	184	not_alive	0	still	0	artefact	0	n	0	0        	 	0.0	0	210.066680100281	210.166698400397	0.100018300116062
120973	100	253	stimuli/movNat/waterfall/mn_waterfall01.jpg      	1	4	1	mn_waterfall01.jpg   	movNat   	3	waterfall 	37	waterfall01 	370	not_alive	0	moves	1	natural 	1	n	0	0        	 	0.0	0	210.216680900194	210.316672000103	0.0999910999089479
121123	100	254	stimuli/plant2/clover/plant_clover02.jpg         	1	4	1	plant_clover02.jpg   	plant2   	7	clover    	9	clover02    	91	alive    	1	still	0	natural 	1	n	0	0        	 	0.0	0	210.366682799999	210.46667700028	0.0999942002817988
121273	100	255	stimuli/plant/grass/plant_grass01.jpg            	1	4	1	plant_grass01.jpg    	plant    	6	grass     	17	grass01     	170	alive    	1	still	0	natural 	1	n	0	0        	 	0.0	0	210.516687600408	210.616681300104	0.099993699695915
121423	100	256	stimuli/animals2/lemur/animal_lemur01.jpg        	1	4	1	animal_lemur01.jpg   	animals2 	1	lemur     	23	lemur01     	230	alive    	1	moves	1	natural 	1	n	0	0        	 	0.0	0	210.666690600105	210.766698900145	0.100008300039917
121573	100	257	stimuli/nonmovArt/mug/nma_mug09.jpg              	1	4	1	nma_mug09.jpg        	nonmovArt	4	mug       	26	mug09       	268	not_alive	0	still	0	artefact	0	n	0	0        	 	0.0	0	210.816694900393	210.916700600181	0.100005699787289
121723	100	258	stimuli/animals2/bee/animal_bee07.jpg            	1	4	1	animal_bee07.jpg     	animals2 	1	bee       	0	bee07       	6	alive    	1	moves	1	natural 	1	n	0	0        	 	0.0	0	210.966698300093	211.066692300141	0.0999940000474453
121873	100	259	stimuli/plant2/palmtree/plant_palmtree03.jpg     	1	4	1	plant_palmtree03.jpg 	plant2   	7	palmtree  	27	palmtree03  	272	alive    	1	still	0	natural 	1	n	0	0        	 	0.0	0	211.116702800151	211.216694100294	0.0999913001433015
122023	100	260	stimuli/animals/dog/animal_dog07.jpg             	1	4	1	animal_dog07.jpg     	animals  	0	dog       	11	dog07       	116	alive    	1	moves	1	natural 	1	n	0	0        	 	0.0	0	211.266748000402	211.366698500235	0.0999504998326302
122173	100	261	stimuli/plant/flower/plant_flower03.jpg          	1	4	1	plant_flower03.jpg   	plant    	6	flower    	16	flower03    	162	alive    	1	still	0	natural 	1	n	0	0        	 	0.0	0	211.416708100121	211.516715900041	0.100007799919695
122323	100	262	stimuli/nonmovArt/clothespeg/nma_clothespeg10.jpg	1	4	1	nma_clothespeg10.jpg 	nonmovArt	4	clothespeg	8	clothespeg10	89	not_alive	0	still	0	artefact	0	n	0	0        	 	0.0	0	211.566713000182	211.666713000275	0.100000000093132
122473	100	263	stimuli/movNat/waves/mn_waves02.jpg              	1	4	1	mn_waves02.jpg       	movNat   	3	waves     	38	waves02     	381	not_alive	0	moves	1	natural 	1	n	0	0        	 	0.0	0	211.716723000165	211.816710400395	0.0999874002300203
122623	100	264	stimuli/nonmovArt/mug/nma_mug07.jpg              	1	4	1	nma_mug07.jpg        	nonmovArt	4	mug       	26	mug07       	266	not_alive	0	still	0	artefact	0	n	1	0        	 	0.0	0	211.866716900375	211.96671280032	0.0999958999454975
122773	100	265	stimuli/nonmovArt/bench/nma_bench03.jpg          	1	4	1	nma_bench03.jpg      	nonmovArt	4	bench     	1	bench03     	12	not_alive	0	still	0	artefact	0	n	0	0        	 	0.0	0	212.016737000085	212.116717400029	0.0999803999438882
122923	100	266	stimuli/nonmovArt/mug/nma_mug05.jpg              	1	4	1	nma_mug05.jpg        	nonmovArt	4	mug       	26	mug05       	264	not_alive	0	still	0	artefact	0	n	0	1        	f	0.292104199994355	1	212.16672720015	212.266726900358	0.0999997002072632
123073	100	267	stimuli/nonmovNat/rock/nmn_rock08.jpg            	1	4	1	nmn_rock08.jpg       	nonmovNat	5	rock      	30	rock08      	307	not_alive	0	still	0	natural 	1	n	0	0        	 	0.0	0	212.316729899962	212.41672320012	0.0999933001585305
123223	100	268	stimuli/nonmovNat/shell/nmn_shell10.jpg          	1	4	1	nmn_shell10.jpg      	nonmovNat	5	shell     	32	shell10     	329	not_alive	0	still	0	natural 	1	n	0	0        	 	0.0	0	212.466733600013	212.566728100181	0.0999945001676679
123373	100	269	stimuli/plant/grass/plant_grass01.jpg            	1	4	1	plant_grass01.jpg    	plant    	6	grass     	17	grass01     	170	alive    	1	still	0	natural 	1	n	0	0        	 	0.0	0	212.616767600179	212.716730900109	0.0999632999300957
123523	100	270	stimuli/animals2/whale/animal_whale05.jpg        	1	4	1	animal_whale05.jpg   	animals2 	1	whale     	39	whale05     	394	alive    	1	moves	1	natural 	1	n	0	0        	 	0.0	0	212.766800200101	212.866732800379	0.0999326002784073
123673	100	271	stimuli/nonmovNat/rock/nmn_rock05.jpg            	1	4	1	nmn_rock05.jpg       	nonmovNat	5	rock      	30	rock05      	304	not_alive	0	still	0	natural 	1	n	0	0        	 	0.0	0	212.916745200288	213.016739299986	0.0999940996989608
123823	100	272	stimuli/movArt/car/ma_car08.jpg                  	1	4	1	ma_car08.jpg         	movArt   	2	car       	5	car08       	57	not_alive	0	moves	1	artefact	0	n	1	0        	 	0.0	0	213.066748100333	213.166741800029	0.099993699695915
123973	100	273	stimuli/plant2/moss/plant_moss10.jpg             	1	4	1	plant_moss10.jpg     	plant2   	7	moss      	25	moss10      	259	alive    	1	still	0	natural 	1	n	0	1        	f	0.253479199949652	1	213.21675210027	213.316744199954	0.0999920996837318
124123	100	274	stimuli/animals2/pigeon/animal_pigeon04.jpg      	1	4	1	animal_pigeon04.jpg  	animals2 	1	pigeon    	28	pigeon04    	283	alive    	1	moves	1	natural 	1	n	0	0        	 	0.0	0	213.366768800188	213.466750100255	0.0999813000671566
124273	100	275	stimuli/nonmovArt/lock/nma_lock10.jpg            	1	4	1	nma_lock10.jpg       	nonmovArt	4	lock      	24	lock10      	249	not_alive	0	still	0	artefact	0	n	0	0        	 	0.0	0	213.516766400076	213.616752300411	0.0999859003350139
124423	100	276	stimuli/plant/cactus/plant_cactus05.jpg          	1	4	1	plant_cactus05.jpg   	plant    	6	cactus    	4	cactus05    	44	alive    	1	still	0	natural 	1	n	0	0        	 	0.0	0	213.666765500326	213.766755300108	0.0999897997826338
124573	100	277	stimuli/movNat/fire/mn_fire09.jpg                	1	4	1	mn_fire09.jpg        	movNat   	3	fire      	15	fire09      	158	not_alive	0	moves	1	natural 	1	n	0	0        	 	0.0	0	213.816767400131	213.916759700049	0.0999922999180853
124723	100	278	stimuli/plant/vine/plant_vine02.jpg              	1	4	1	plant_vine02.jpg     	plant    	6	vine      	36	vine02      	361	alive    	1	still	0	natural 	1	n	0	0        	 	0.0	0	213.966772600077	214.066762200091	0.0999896000139415
124873	100	279	stimuli/plant/cactus/plant_cactus06.jpg          	1	4	1	plant_cactus06.jpg   	plant    	6	cactus    	4	cactus06    	45	alive    	1	still	0	natural 	1	n	0	0        	 	0.0	0	214.116775000002	214.216768600047	0.0999936000443995
125023	100	280	stimuli/animals/cat/animal_cat05.jpg             	1	4	1	animal_cat05.jpg     	animals  	0	cat       	6	cat05       	64	alive    	1	moves	1	natural 	1	n	0	0        	 	0.0	0	214.266778100282	214.366769100074	0.0999909997917712
125173	100	281	stimuli/movNat/river/mn_river02.jpg              	1	4	1	mn_river02.jpg       	movNat   	3	river     	29	river02     	291	not_alive	0	moves	1	natural 	1	n	0	0        	 	0.0	0	214.416781300213	214.516773100011	0.0999917997978628
125323	100	282	stimuli/nonmovNat/cliff/nmn_cliff03.jpg          	1	4	1	nmn_cliff03.jpg      	nonmovNat	5	cliff     	7	cliff03     	72	not_alive	0	still	0	natural 	1	n	0	0        	 	0.0	0	214.566786600277	214.666777600069	0.0999909997917712
125473	100	283	stimuli/nonmovNat/rock/nmn_rock10.jpg            	1	4	1	nmn_rock10.jpg       	nonmovNat	5	rock      	30	rock10      	309	not_alive	0	still	0	natural 	1	n	0	0        	 	0.0	0	214.71678740019	214.816780600231	0.0999932000413537
125623	100	284	stimuli/animals/dolphin/animal_dolphin10.jpg     	1	4	1	animal_dolphin10.jpg 	animals  	0	dolphin   	12	dolphin10   	129	alive    	1	moves	1	natural 	1	n	0	0        	 	0.0	0	214.866792700253	214.966796800029	0.100004099775106
125773	100	285	stimuli/movArt/car/ma_car05.jpg                  	1	4	1	ma_car05.jpg         	movArt   	2	car       	5	car05       	54	not_alive	0	moves	1	artefact	0	n	0	0        	 	0.0	0	215.016796899959	215.116788700223	0.0999918002635241
125923	100	286	stimuli/plant/tree/plant_tree01.jpg              	1	4	1	plant_tree01.jpg     	plant    	6	tree      	35	tree01      	350	alive    	1	still	0	natural 	1	n	0	0        	 	0.0	0	215.16679930035	215.266796099953	0.0999967996031046
126073	100	287	stimuli/animals2/tiger/animal_tiger04.jpg        	1	4	1	animal_tiger04.jpg   	animals2 	1	tiger     	33	tiger04     	333	alive    	1	moves	1	natural 	1	n	0	0        	 	0.0	0	215.316803500056	215.416796100326	0.0999926002696156
126223	100	288	stimuli/nonmovArt/lock/nma_lock06.jpg            	1	4	1	nma_lock06.jpg       	nonmovArt	4	lock      	24	lock06      	245	not_alive	0	still	0	artefact	0	n	1	0        	 	0.0	0	215.466807499994	215.566800800152	0.0999933001585305
126373	100	289	stimuli/plant2/moss/plant_moss04.jpg             	1	4	1	plant_moss04.jpg     	plant2   	7	moss      	25	moss04      	253	alive    	1	still	0	natural 	1	n	0	0        	 	0.0	0	215.616817000322	215.716831800062	0.100014799740165
126523	100	290	stimuli/nonmovNat/cliff/nmn_cliff10.jpg          	1	4	1	nmn_cliff10.jpg      	nonmovNat	5	cliff     	7	cliff10     	79	not_alive	0	still	0	natural 	1	n	0	1        	f	0.292134300339967	1	215.76681630034	215.866806600243	0.0999902999028564
126673	100	291	stimuli/animals2/bee/animal_bee06.jpg            	1	4	1	animal_bee06.jpg     	animals2 	1	bee       	0	bee06       	5	alive    	1	moves	1	natural 	1	n	0	0        	 	0.0	0	215.916824200191	216.016810700297	0.0999865001067519
126823	100	292	stimuli/plant/tree/plant_tree04.jpg              	1	4	1	plant_tree04.jpg     	plant    	6	tree      	35	tree04      	353	alive    	1	still	0	natural 	1	n	0	0        	 	0.0	0	216.066826099996	216.1668145	0.0999884000048041
126973	100	293	stimuli/nonmovNat/sand/nmn_sand07.jpg            	1	4	1	nmn_sand07.jpg       	nonmovNat	5	sand      	31	sand07      	316	not_alive	0	still	0	natural 	1	n	0	0        	 	0.0	0	216.21682500001	216.316832600161	0.100007600151002
127123	100	294	stimuli/animals2/lemur/animal_lemur03.jpg        	1	4	1	animal_lemur03.jpg   	animals2 	1	lemur     	23	lemur03     	232	alive    	1	moves	1	natural 	1	n	0	0        	 	0.0	0	216.366828200407	216.466841400135	0.100013199727982
127273	100	295	stimuli/movNat/waterfall/mn_waterfall03.jpg      	1	4	1	mn_waterfall03.jpg   	movNat   	3	waterfall 	37	waterfall03 	372	not_alive	0	moves	1	natural 	1	n	0	0        	 	0.0	0	216.516831400339	216.616826000158	0.0999945998191834
127423	100	296	stimuli/plant/cactus/plant_cactus01.jpg          	1	4	1	plant_cactus01.jpg   	plant    	6	cactus    	4	cactus01    	40	alive    	1	still	0	natural 	1	n	0	0        	 	0.0	0	216.666834500153	216.766827000305	0.0999925001524389
127573	100	297	stimuli/nonmovNat/crystal/nmn_crystal05.jpg      	1	4	1	nmn_crystal05.jpg    	nonmovNat	5	crystal   	10	crystal05   	104	not_alive	0	still	0	natural 	1	n	0	0        	 	0.0	0	216.816838700324	216.916832800023	0.0999940996989608
127723	100	298	stimuli/animals/dolphin/animal_dolphin04.jpg     	1	4	1	animal_dolphin04.jpg 	animals  	0	dolphin   	12	dolphin04   	123	alive    	1	moves	1	natural 	1	n	0	0        	 	0.0	0	216.966841100249	217.066839599982	0.0999984997324646
127873	100	299	stimuli/movArt/helicopter/ma_helicopter03.jpg    	1	4	1	ma_helicopter03.jpg  	movArt   	2	helicopter	19	helicopter03	192	not_alive	0	moves	1	artefact	0	n	0	0        	 	0.0	0	217.116846300196	217.216853199992	0.100006899796426
128023	100	300	stimuli/animals/cat/animal_cat06.jpg             	1	4	1	animal_cat06.jpg     	animals  	0	cat       	6	cat06       	65	alive    	1	moves	1	natural 	1	n	0	0        	 	0.0	0	217.266851700377	217.366842700168	0.0999909997917712
128173	100	301	stimuli/plant2/fern/plant_fern05.jpg             	1	4	1	plant_fern05.jpg     	plant2   	7	fern      	14	fern05      	144	alive    	1	still	0	natural 	1	n	0	0        	 	0.0	0	217.416854000185	217.516847300343	0.0999933001585305
128323	100	302	stimuli/animals/horse/animal_horse01.jpg         	1	4	1	animal_horse01.jpg   	animals  	0	horse     	20	horse01     	200	alive    	1	moves	1	natural 	1	n	0	0        	 	0.0	0	217.566889800131	217.666851800401	0.0999620002694428
128473	100	303	stimuli/nonmovArt/headphones/nma_headphones08.jpg	1	4	1	nma_headphones08.jpg 	nonmovArt	4	headphones	18	headphones08	187	not_alive	0	still	0	artefact	0	n	0	0        	 	0.0	0	217.716862100177	217.816866700072	0.100004599895328
128623	100	304	stimuli/animals2/bee/animal_bee02.jpg            	1	4	1	animal_bee02.jpg     	animals2 	1	bee       	0	bee02       	1	alive    	1	moves	1	natural 	1	n	0	0        	 	0.0	0	217.866864200216	217.966855400242	0.0999912000261247
128773	100	305	stimuli/movArt/helicopter/ma_helicopter07.jpg    	1	4	1	ma_helicopter07.jpg  	movArt   	2	helicopter	19	helicopter07	196	not_alive	0	moves	1	artefact	0	n	0	0        	 	0.0	0	218.016866400372	218.116860500071	0.0999940996989608
128923	100	306	stimuli/movArt/helicopter/ma_helicopter09.jpg    	1	4	1	ma_helicopter09.jpg  	movArt   	2	helicopter	19	helicopter09	198	not_alive	0	moves	1	artefact	0	n	1	0        	 	0.0	0	218.166888100095	218.266865200363	0.0999771002680063
129073	100	307	stimuli/movArt/boat/ma_boat01.jpg                	1	4	1	ma_boat01.jpg        	movArt   	2	boat      	2	boat01      	20	not_alive	0	moves	1	artefact	0	n	0	0        	 	0.0	0	218.316874200013	218.416868900415	0.0999947004020214
129223	100	308	stimuli/movArt/boat/ma_boat06.jpg                	1	4	1	ma_boat06.jpg        	movArt   	2	boat      	2	boat06      	25	not_alive	0	moves	1	artefact	0	n	0	1        	f	0.292081899940968	1	218.466878800187	218.566874100361	0.0999953001737595
129373	100	309	stimuli/animals2/whale/animal_whale07.jpg        	1	4	1	animal_whale07.jpg   	animals2 	1	whale     	39	whale07     	396	alive    	1	moves	1	natural 	1	n	0	0        	 	0.0	0	218.616882400122	218.7168762004	0.099993800278753
129523	100	310	stimuli/plant/tree/plant_tree10.jpg              	1	4	1	plant_tree10.jpg     	plant    	6	tree      	35	tree10      	359	alive    	1	still	0	natural 	1	n	0	0        	 	0.0	0	218.76688620029	218.866878100205	0.0999918999150395
129673	100	311	stimuli/plant2/palmtree/plant_palmtree04.jpg     	1	4	1	plant_palmtree04.jpg 	plant2   	7	palmtree  	27	palmtree04  	273	alive    	1	still	0	natural 	1	n	0	0        	 	0.0	0	218.916908300016	219.016885800287	0.0999775002710521
129823	100	312	stimuli/nonmovNat/sand/nmn_sand09.jpg            	1	4	1	nmn_sand09.jpg       	nonmovNat	5	sand      	31	sand09      	318	not_alive	0	still	0	natural 	1	n	0	0        	 	0.0	0	219.066905800253	219.166886399966	0.0999805997125804
129973	100	313	stimuli/animals/dog/animal_dog10.jpg             	1	4	1	animal_dog10.jpg     	animals  	0	dog       	11	dog10       	119	alive    	1	moves	1	natural 	1	n	0	0        	 	0.0	0	219.216898700222	219.316892300267	0.0999936000443995
130123	100	314	stimuli/plant/flower/plant_flower07.jpg          	1	4	1	plant_flower07.jpg   	plant    	6	flower    	16	flower07    	166	alive    	1	still	0	natural 	1	n	0	0        	 	0.0	0	219.366901700385	219.466893800069	0.0999920996837318
130273	100	315	stimuli/animals/cat/animal_cat04.jpg             	1	4	1	animal_cat04.jpg     	animals  	0	cat       	6	cat04       	63	alive    	1	moves	1	natural 	1	n	0	0        	 	0.0	0	219.516905300319	219.616897700354	0.0999924000352621
130423	100	316	stimuli/animals/eagle/animal_eagle06.jpg         	1	4	1	animal_eagle06.jpg   	animals  	0	eagle     	13	eagle06     	135	alive    	1	moves	1	natural 	1	n	0	0        	 	0.0	0	219.666911600158	219.766899400391	0.0999878002330661
130573	100	317	stimuli/animals/eagle/animal_eagle10.jpg         	1	4	1	animal_eagle10.jpg   	animals  	0	eagle     	13	eagle10     	139	alive    	1	moves	1	natural 	1	n	0	0        	 	0.0	0	219.816913499963	219.916904900223	0.0999914002604783
130723	100	318	stimuli/plant2/clover/plant_clover09.jpg         	1	4	1	plant_clover09.jpg   	plant2   	7	clover    	9	clover09    	98	alive    	1	still	0	natural 	1	n	0	0        	 	0.0	0	219.966917100362	220.066908200271	0.0999910999089479
130873	100	319	stimuli/movNat/hotspring/mn_hotspring05.jpg      	1	4	1	mn_hotspring05.jpg   	movNat   	3	hotspring 	21	hotspring05 	214	not_alive	0	moves	1	natural 	1	n	0	0        	 	0.0	0	220.116918800399	220.216911700089	0.0999928996898234
138107	100	320	stimuli/plant/grass/plant_grass10.jpg            	1	5	1	plant_grass10.jpg    	plant    	6	grass     	17	grass10     	179	alive    	1	still	0	natural 	1	n	0	0        	 	0.0	0	227.35045350017	227.45044440031	0.0999909001402557
138257	100	321	stimuli/animals2/tiger/animal_tiger08.jpg        	1	5	1	animal_tiger08.jpg   	animals2 	1	tiger     	33	tiger08     	337	alive    	1	moves	1	natural 	1	n	0	0        	 	0.0	0	227.500456000213	227.600451400038	0.0999953998252749
138407	100	322	stimuli/nonmovNat/crystal/nmn_crystal04.jpg      	1	5	1	nmn_crystal04.jpg    	nonmovNat	5	crystal   	10	crystal04   	103	not_alive	0	still	0	natural 	1	n	0	0        	 	0.0	0	227.650457300246	227.75045040017	0.0999930999241769
138557	100	323	stimuli/nonmovArt/clothespeg/nma_clothespeg08.jpg	1	5	1	nma_clothespeg08.jpg 	nonmovArt	4	clothespeg	8	clothespeg08	87	not_alive	0	still	0	artefact	0	n	0	0        	 	0.0	0	227.800462800078	227.900447700173	0.0999849000945687
138707	100	324	stimuli/nonmovNat/shell/nmn_shell05.jpg          	1	5	1	nmn_shell05.jpg      	nonmovNat	5	shell     	32	shell05     	324	not_alive	0	still	0	natural 	1	n	0	0        	 	0.0	0	227.950478900224	228.050468000118	0.099989099893719
138857	100	325	stimuli/animals/horse/animal_horse07.jpg         	1	5	1	animal_horse07.jpg   	animals  	0	horse     	20	horse07     	206	alive    	1	moves	1	natural 	1	n	0	0        	 	0.0	0	228.100463900249	228.200471800286	0.100007900036871
139007	100	326	stimuli/movNat/waterfall/mn_waterfall04.jpg      	1	5	1	mn_waterfall04.jpg   	movNat   	3	waterfall 	37	waterfall04 	373	not_alive	0	moves	1	natural 	1	n	0	0        	 	0.0	0	228.250480000395	228.350461000111	0.0999809997156262
139157	100	327	stimuli/movNat/waves/mn_waves05.jpg              	1	5	1	mn_waves05.jpg       	movNat   	3	waves     	38	waves05     	384	not_alive	0	moves	1	natural 	1	n	0	0        	 	0.0	0	228.400483500212	228.500482400414	0.0999989002011716
139307	100	328	stimuli/plant2/fern/plant_fern04.jpg             	1	5	1	plant_fern04.jpg     	plant2   	7	fern      	14	fern04      	143	alive    	1	still	0	natural 	1	n	0	0        	 	0.0	0	228.550487800036	228.650483100209	0.0999953001737595
139457	100	329	stimuli/nonmovNat/crystal/nmn_crystal10.jpg      	1	5	1	nmn_crystal10.jpg    	nonmovNat	5	crystal   	10	crystal10   	109	not_alive	0	still	0	natural 	1	n	0	0        	 	0.0	0	228.700483400375	228.800468800124	0.09998539974913
139607	100	330	stimuli/animals/dog/animal_dog05.jpg             	1	5	1	animal_dog05.jpg     	animals  	0	dog       	11	dog05       	114	alive    	1	moves	1	natural 	1	n	0	0        	 	0.0	0	228.850478800014	228.950474800076	0.0999960000626743
139757	100	331	stimuli/nonmovArt/bench/nma_bench10.jpg          	1	5	1	nma_bench10.jpg      	nonmovArt	4	bench     	1	bench10     	19	not_alive	0	still	0	artefact	0	n	0	0        	 	0.0	0	229.000494400039	229.100498900283	0.100004500243813
139907	100	332	stimuli/movNat/hotspring/mn_hotspring07.jpg      	1	5	1	mn_hotspring07.jpg   	movNat   	3	hotspring 	21	hotspring07 	216	not_alive	0	moves	1	natural 	1	n	0	1        	f	0.0	0	229.150496100076	229.250491700135	0.0999956000596285
140057	100	333	stimuli/movNat/river/mn_river01.jpg              	1	5	1	mn_river01.jpg       	movNat   	3	river     	29	river01     	290	not_alive	0	moves	1	natural 	1	n	0	0        	 	0.0	0	229.300504400395	229.400502500124	0.0999980997294188
140207	100	334	stimuli/animals/horse/animal_horse03.jpg         	1	5	1	animal_horse03.jpg   	animals  	0	horse     	20	horse03     	202	alive    	1	moves	1	natural 	1	n	0	0        	 	0.0	0	229.450503500178	229.550493500195	0.0999900000169873
140357	100	335	stimuli/animals2/pigeon/animal_pigeon02.jpg      	1	5	1	animal_pigeon02.jpg  	animals2 	1	pigeon    	28	pigeon02    	281	alive    	1	moves	1	natural 	1	n	0	0        	 	0.0	0	229.600502599962	229.700498900376	0.0999963004142046
140507	100	336	stimuli/plant2/lemontree/plant_lemontree09.jpg   	1	5	1	plant_lemontree09.jpg	plant2   	7	lemontree 	22	lemontree09 	228	alive    	1	still	0	natural 	1	n	0	0        	 	0.0	0	229.750509500038	229.850510100368	0.100000600330532
140657	100	337	stimuli/plant2/lemontree/plant_lemontree07.jpg   	1	5	1	plant_lemontree07.jpg	plant2   	7	lemontree 	22	lemontree07 	226	alive    	1	still	0	natural 	1	n	0	0        	 	0.0	0	229.900499100331	230.000493500382	0.0999944000504911
140807	100	338	stimuli/movArt/bus/ma_bus07.jpg                  	1	5	1	ma_bus07.jpg         	movArt   	2	bus       	3	bus07       	36	not_alive	0	moves	1	artefact	0	n	0	0        	 	0.0	0	230.050519200042	230.150514500216	0.0999953001737595
140957	100	339	stimuli/nonmovArt/bench/nma_bench01.jpg          	1	5	1	nma_bench01.jpg      	nonmovArt	4	bench     	1	bench01     	10	not_alive	0	still	0	artefact	0	n	0	0        	 	0.0	0	230.200512900017	230.300501900259	0.0999890002422035
141107	100	340	stimuli/plant/flower/plant_flower01.jpg          	1	5	1	plant_flower01.jpg   	plant    	6	flower    	16	flower01    	160	alive    	1	still	0	natural 	1	n	0	0        	 	0.0	0	230.350510600023	230.450518700294	0.100008100271225
141257	100	341	stimuli/plant2/lemontree/plant_lemontree08.jpg   	1	5	1	plant_lemontree08.jpg	plant2   	7	lemontree 	22	lemontree08 	227	alive    	1	still	0	natural 	1	n	0	1        	f	0.0	0	230.500528899953	230.600508300122	0.0999794001691043
141407	100	342	stimuli/movArt/boat/ma_boat07.jpg                	1	5	1	ma_boat07.jpg        	movArt   	2	boat      	2	boat07      	26	not_alive	0	moves	1	artefact	0	n	0	0        	 	0.0	0	230.650515300222	230.750499899965	0.0999845997430384
141557	100	343	stimuli/movArt/train/ma_train04.jpg              	1	5	1	ma_train04.jpg       	movArt   	2	train     	34	train04     	343	not_alive	0	moves	1	artefact	0	n	0	0        	 	0.0	0	230.800523200072	230.900502500124	0.0999793000519276
141707	100	344	stimuli/movArt/train/ma_train07.jpg              	1	5	1	ma_train07.jpg       	movArt   	2	train     	34	train07     	346	not_alive	0	moves	1	artefact	0	n	0	0        	 	0.0	0	230.950531600043	231.050506600179	0.0999750001356006
141857	100	345	stimuli/movArt/bus/ma_bus07.jpg                  	1	5	1	ma_bus07.jpg         	movArt   	2	bus       	3	bus07       	36	not_alive	0	moves	1	artefact	0	n	0	0        	 	0.0	0	231.100517100189	231.20050980011	0.0999926999211311
142007	100	346	stimuli/nonmovArt/lock/nma_lock02.jpg            	1	5	1	nma_lock02.jpg       	nonmovArt	4	lock      	24	lock02      	241	not_alive	0	still	0	artefact	0	n	0	0        	 	0.0	0	231.250520600006	231.350513900164	0.0999933001585305
142157	100	347	stimuli/plant/vine/plant_vine06.jpg              	1	5	1	plant_vine06.jpg     	plant    	6	vine      	36	vine06      	365	alive    	1	still	0	natural 	1	n	0	0        	 	0.0	0	231.400524500292	231.500517500099	0.0999929998070002
142307	100	348	stimuli/animals2/lemur/animal_lemur08.jpg        	1	5	1	animal_lemur08.jpg   	animals2 	1	lemur     	23	lemur08     	237	alive    	1	moves	1	natural 	1	n	0	0        	 	0.0	0	231.550540500321	231.650520500261	0.0999799999408424
142457	100	349	stimuli/plant2/clover/plant_clover01.jpg         	1	5	1	plant_clover01.jpg   	plant2   	7	clover    	9	clover01    	90	alive    	1	still	0	natural 	1	n	0	0        	 	0.0	0	231.700540100224	231.80052730022	0.0999871999956667
142607	100	350	stimuli/movArt/bus/ma_bus04.jpg                  	1	5	1	ma_bus04.jpg         	movArt   	2	bus       	3	bus04       	33	not_alive	0	moves	1	artefact	0	n	0	0        	 	0.0	0	231.850537400227	231.950529000256	0.0999916000291705
142757	100	351	stimuli/movNat/waves/mn_waves04.jpg              	1	5	1	mn_waves04.jpg       	movNat   	3	waves     	38	waves04     	383	not_alive	0	moves	1	natural 	1	n	1	0        	 	0.0	0	232.000537100248	232.100531300064	0.0999941998161376
142907	100	352	stimuli/nonmovArt/clothespeg/nma_clothespeg09.jpg	1	5	1	nma_clothespeg09.jpg 	nonmovArt	4	clothespeg	8	clothespeg09	88	not_alive	0	still	0	artefact	0	n	0	0        	 	0.0	0	232.150548100006	232.250533800106	0.0999857001006603
143057	100	353	stimuli/nonmovNat/sand/nmn_sand09.jpg            	1	5	1	nmn_sand09.jpg       	nonmovNat	5	sand      	31	sand09      	318	not_alive	0	still	0	natural 	1	n	0	1        	f	0.292099500074983	1	232.3005509004	232.400538200047	0.0999872996471822
143207	100	354	stimuli/animals2/whale/animal_whale01.jpg        	1	5	1	animal_whale01.jpg   	animals2 	1	whale     	39	whale01     	390	alive    	1	moves	1	natural 	1	n	0	0        	 	0.0	0	232.450548700057	232.550545300357	0.0999966003000736
143357	100	355	stimuli/movNat/fire/mn_fire06.jpg                	1	5	1	mn_fire06.jpg        	movNat   	3	fire      	15	fire06      	155	not_alive	0	moves	1	natural 	1	n	0	0        	 	0.0	0	232.600554900244	232.700547100045	0.0999921998009086
143507	100	356	stimuli/movNat/fire/mn_fire04.jpg                	1	5	1	mn_fire04.jpg        	movNat   	3	fire      	15	fire04      	153	not_alive	0	moves	1	natural 	1	n	0	0        	 	0.0	0	232.750555100385	232.850550400093	0.0999952997080982
143657	100	357	stimuli/animals2/tiger/animal_tiger02.jpg        	1	5	1	animal_tiger02.jpg   	animals2 	1	tiger     	33	tiger02     	331	alive    	1	moves	1	natural 	1	n	0	0        	 	0.0	0	232.900560200214	233.000552300364	0.0999921001493931
143807	100	358	stimuli/animals2/pigeon/animal_pigeon03.jpg      	1	5	1	animal_pigeon03.jpg  	animals2 	1	pigeon    	28	pigeon03    	282	alive    	1	moves	1	natural 	1	n	0	0        	 	0.0	0	233.050563500263	233.150567600038	0.100004099775106
143957	100	359	stimuli/movArt/car/ma_car08.jpg                  	1	5	1	ma_car08.jpg         	movArt   	2	car       	5	car08       	57	not_alive	0	moves	1	artefact	0	n	0	0        	 	0.0	0	233.20056700008	233.30056260014	0.0999956000596285
144107	100	360	stimuli/animals2/bee/animal_bee10.jpg            	1	5	1	animal_bee10.jpg     	animals2 	1	bee       	0	bee10       	9	alive    	1	moves	1	natural 	1	n	0	0        	 	0.0	0	233.350570600014	233.450564100407	0.099993500392884
144257	100	361	stimuli/animals2/tiger/animal_tiger07.jpg        	1	5	1	animal_tiger07.jpg   	animals2 	1	tiger     	33	tiger07     	336	alive    	1	moves	1	natural 	1	n	0	0        	 	0.0	0	233.500574599952	233.600566900335	0.0999923003837466
144407	100	362	stimuli/plant/grass/plant_grass07.jpg            	1	5	1	plant_grass07.jpg    	plant    	6	grass     	17	grass07     	176	alive    	1	still	0	natural 	1	n	0	0        	 	0.0	0	233.650577700231	233.750570800155	0.0999930999241769
144557	100	363	stimuli/movNat/waves/mn_waves01.jpg              	1	5	1	mn_waves01.jpg       	movNat   	3	waves     	38	waves01     	380	not_alive	0	moves	1	natural 	1	n	0	0        	 	0.0	0	233.800581100397	233.900602499954	0.10002139955759
144707	100	364	stimuli/plant2/clover/plant_clover03.jpg         	1	5	1	plant_clover03.jpg   	plant2   	7	clover    	9	clover03    	92	alive    	1	still	0	natural 	1	n	0	0        	 	0.0	0	233.950587000232	234.050580400042	0.099993399810046
144857	100	365	stimuli/animals/eagle/animal_eagle09.jpg         	1	5	1	animal_eagle09.jpg   	animals  	0	eagle     	13	eagle09     	138	alive    	1	moves	1	natural 	1	n	0	0        	 	0.0	0	234.100587500259	234.200580900069	0.099993399810046
145007	100	366	stimuli/movNat/fire/mn_fire09.jpg                	1	5	1	mn_fire09.jpg        	movNat   	3	fire      	15	fire09      	158	not_alive	0	moves	1	natural 	1	n	0	1        	f	0.0	0	234.250591600314	234.350586900022	0.0999952997080982
145157	100	367	stimuli/nonmovArt/bench/nma_bench05.jpg          	1	5	1	nma_bench05.jpg      	nonmovArt	4	bench     	1	bench05     	14	not_alive	0	still	0	artefact	0	n	1	0        	 	0.0	0	234.40059850039	234.50060460018	0.100006099790335
145307	100	368	stimuli/movArt/bus/ma_bus05.jpg                  	1	5	1	ma_bus05.jpg         	movArt   	2	bus       	3	bus05       	34	not_alive	0	moves	1	artefact	0	n	0	0        	 	0.0	0	234.550600400195	234.650620300323	0.100019900128245
145457	100	369	stimuli/plant/cactus/plant_cactus09.jpg          	1	5	1	plant_cactus09.jpg   	plant    	6	cactus    	4	cactus09    	48	alive    	1	still	0	natural 	1	n	0	1        	f	0.301559099927545	1	234.700608800165	234.800595100038	0.0999862998723984
145607	100	370	stimuli/animals/cat/animal_cat04.jpg             	1	5	1	animal_cat04.jpg     	animals  	0	cat       	6	cat04       	63	alive    	1	moves	1	natural 	1	n	0	0        	 	0.0	0	234.850608500186	234.950601300225	0.0999928000383079
145757	100	371	stimuli/animals/horse/animal_horse03.jpg         	1	5	1	animal_horse03.jpg   	animals  	0	horse     	20	horse03     	202	alive    	1	moves	1	natural 	1	n	0	0        	 	0.0	0	235.000611700118	235.100606200285	0.0999945001676679
145907	100	372	stimuli/movArt/car/ma_car01.jpg                  	1	5	1	ma_car01.jpg         	movArt   	2	car       	5	car01       	50	not_alive	0	moves	1	artefact	0	n	0	0        	 	0.0	0	235.15061420016	235.250627700239	0.100013500079513
146057	100	373	stimuli/animals2/whale/animal_whale09.jpg        	1	5	1	animal_whale09.jpg   	animals2 	1	whale     	39	whale09     	398	alive    	1	moves	1	natural 	1	n	0	0        	 	0.0	0	235.300617000088	235.400623199996	0.100006199907511
146207	100	374	stimuli/animals/eagle/animal_eagle02.jpg         	1	5	1	animal_eagle02.jpg   	animals  	0	eagle     	13	eagle02     	131	alive    	1	moves	1	natural 	1	n	0	0        	 	0.0	0	235.450620900374	235.550616099965	0.0999951995909214
146357	100	375	stimuli/nonmovNat/sand/nmn_sand08.jpg            	1	5	1	nmn_sand08.jpg       	nonmovNat	5	sand      	31	sand08      	317	not_alive	0	still	0	natural 	1	n	0	0        	 	0.0	0	235.600626300089	235.70061900001	0.0999926999211311
146507	100	376	stimuli/nonmovNat/rock/nmn_rock01.jpg            	1	5	1	nmn_rock01.jpg       	nonmovNat	5	rock      	30	rock01      	300	not_alive	0	still	0	natural 	1	n	0	0        	 	0.0	0	235.750651500188	235.850621200167	0.0999696999788284
146657	100	377	stimuli/nonmovArt/lock/nma_lock07.jpg            	1	5	1	nma_lock07.jpg       	nonmovArt	4	lock      	24	lock07      	246	not_alive	0	still	0	artefact	0	n	0	0        	 	0.0	0	235.900632000063	236.000638999976	0.100006999913603
146807	100	378	stimuli/movNat/river/mn_river05.jpg              	1	5	1	mn_river05.jpg       	movNat   	3	river     	29	river05     	294	not_alive	0	moves	1	natural 	1	n	0	0        	 	0.0	0	236.050639900379	236.150628300384	0.0999884000048041
146957	100	379	stimuli/movArt/train/ma_train02.jpg              	1	5	1	ma_train02.jpg       	movArt   	2	train     	34	train02     	341	not_alive	0	moves	1	artefact	0	n	0	0        	 	0.0	0	236.200639400166	236.300633400213	0.0999940000474453
147107	100	380	stimuli/plant/vine/plant_vine07.jpg              	1	5	1	plant_vine07.jpg     	plant    	6	vine      	36	vine07      	366	alive    	1	still	0	natural 	1	n	0	0        	 	0.0	0	236.350658300333	236.450637500267	0.0999791999347508
147257	100	381	stimuli/nonmovArt/clothespeg/nma_clothespeg04.jpg	1	5	1	nma_clothespeg04.jpg 	nonmovArt	4	clothespeg	8	clothespeg04	83	not_alive	0	still	0	artefact	0	n	0	0        	 	0.0	0	236.500677900389	236.600639200304	0.0999612999148667
147407	100	382	stimuli/movNat/hotspring/mn_hotspring02.jpg      	1	5	1	mn_hotspring02.jpg   	movNat   	3	hotspring 	21	hotspring02 	211	not_alive	0	moves	1	natural 	1	n	0	0        	 	0.0	0	236.650651500095	236.750645600259	0.0999941001646221
147557	100	383	stimuli/nonmovNat/rock/nmn_rock05.jpg            	1	5	1	nmn_rock05.jpg       	nonmovNat	5	rock      	30	rock05      	304	not_alive	0	still	0	natural 	1	n	0	0        	 	0.0	0	236.800652500242	236.900647400413	0.0999949001707137
147707	100	384	stimuli/animals/dog/animal_dog03.jpg             	1	5	1	animal_dog03.jpg     	animals  	0	dog       	11	dog03       	112	alive    	1	moves	1	natural 	1	n	0	0        	 	0.0	0	236.950660400093	237.050649899989	0.0999894998967648
147857	100	385	stimuli/plant2/lemontree/plant_lemontree10.jpg   	1	5	1	plant_lemontree10.jpg	plant2   	7	lemontree 	22	lemontree10 	229	alive    	1	still	0	natural 	1	n	0	0        	 	0.0	0	237.10067460034	237.200654400047	0.0999797997064888
148007	100	386	stimuli/movNat/river/mn_river02.jpg              	1	5	1	mn_river02.jpg       	movNat   	3	river     	29	river02     	291	not_alive	0	moves	1	natural 	1	n	0	0        	 	0.0	0	237.250675900374	237.350656700321	0.099980799946934
148157	100	387	stimuli/movArt/helicopter/ma_helicopter10.jpg    	1	5	1	ma_helicopter10.jpg  	movArt   	2	helicopter	19	helicopter10	199	not_alive	0	moves	1	artefact	0	n	0	0        	 	0.0	0	237.40066790022	237.500661500264	0.0999936000443995
148307	100	388	stimuli/nonmovArt/bench/nma_bench01.jpg          	1	5	1	nma_bench01.jpg      	nonmovArt	4	bench     	1	bench01     	10	not_alive	0	still	0	artefact	0	n	0	0        	 	0.0	0	237.55067230016	237.650667200331	0.0999949001707137
148457	100	389	stimuli/nonmovArt/mug/nma_mug05.jpg              	1	5	1	nma_mug05.jpg        	nonmovArt	4	mug       	26	mug05       	264	not_alive	0	still	0	artefact	0	n	0	0        	 	0.0	0	237.7006767001	237.800666199997	0.0999894998967648
148607	100	390	stimuli/nonmovNat/cliff/nmn_cliff09.jpg          	1	5	1	nmn_cliff09.jpg      	nonmovNat	5	cliff     	7	cliff09     	78	not_alive	0	still	0	natural 	1	n	0	0        	 	0.0	0	237.850686199963	237.950671500061	0.0999853000976145
148757	100	391	stimuli/nonmovArt/mug/nma_mug10.jpg              	1	5	1	nma_mug10.jpg        	nonmovArt	4	mug       	26	mug10       	269	not_alive	0	still	0	artefact	0	n	0	0        	 	0.0	0	238.000684299972	238.100677000359	0.0999927003867924
148907	100	392	stimuli/animals/eagle/animal_eagle01.jpg         	1	5	1	animal_eagle01.jpg   	animals  	0	eagle     	13	eagle01     	130	alive    	1	moves	1	natural 	1	n	0	0        	 	0.0	0	238.150686000008	238.25067920005	0.0999932000413537
149057	100	393	stimuli/animals2/lemur/animal_lemur05.jpg        	1	5	1	animal_lemur05.jpg   	animals2 	1	lemur     	23	lemur05     	234	alive    	1	moves	1	natural 	1	n	0	0        	 	0.0	0	238.300689800177	238.400684300344	0.0999945001676679
149207	100	394	stimuli/movArt/boat/ma_boat03.jpg                	1	5	1	ma_boat03.jpg        	movArt   	2	boat      	2	boat03      	22	not_alive	0	moves	1	artefact	0	n	0	0        	 	0.0	0	238.450697700027	238.550687900279	0.0999902002513409
149357	100	395	stimuli/plant/tree/plant_tree02.jpg              	1	5	1	plant_tree02.jpg     	plant    	6	tree      	35	tree02      	351	alive    	1	still	0	natural 	1	n	0	0        	 	0.0	0	238.600702200085	238.700690099969	0.0999878998845816
149507	100	396	stimuli/plant2/lemontree/plant_lemontree08.jpg   	1	5	1	plant_lemontree08.jpg	plant2   	7	lemontree 	22	lemontree08 	227	alive    	1	still	0	natural 	1	n	0	0        	 	0.0	0	238.750698300079	238.850693200249	0.0999949001707137
149657	100	397	stimuli/plant2/moss/plant_moss05.jpg             	1	5	1	plant_moss05.jpg     	plant2   	7	moss      	25	moss05      	254	alive    	1	still	0	natural 	1	n	0	0        	 	0.0	0	238.900704300031	239.000704700127	0.100000400096178
149807	100	398	stimuli/nonmovArt/bench/nma_bench08.jpg          	1	5	1	nma_bench08.jpg      	nonmovArt	4	bench     	1	bench08     	17	not_alive	0	still	0	artefact	0	n	0	0        	 	0.0	0	239.050707099959	239.150703500025	0.0999964000657201
149957	100	399	stimuli/animals2/lemur/animal_lemur10.jpg        	1	5	1	animal_lemur10.jpg   	animals2 	1	lemur     	23	lemur10     	239	alive    	1	moves	1	natural 	1	n	0	0        	 	0.0	0	239.200696900021	239.300716300029	0.100019400008023
156091	100	400	stimuli/animals2/bee/animal_bee04.jpg            	1	6	1	animal_bee04.jpg     	animals2 	1	bee       	0	bee04       	3	alive    	1	moves	1	natural 	1	n	0	0        	 	0.0	0	245.334216100164	245.434214000124	0.0999978999607265
156241	100	401	stimuli/animals/dolphin/animal_dolphin03.jpg     	1	6	1	animal_dolphin03.jpg 	animals  	0	dolphin   	12	dolphin03   	122	alive    	1	moves	1	natural 	1	n	0	0        	 	0.0	0	245.484227400273	245.584203999955	0.0999765996821225
156391	100	402	stimuli/animals2/whale/animal_whale02.jpg        	1	6	1	animal_whale02.jpg   	animals2 	1	whale     	39	whale02     	391	alive    	1	moves	1	natural 	1	n	0	0        	 	0.0	0	245.634210900404	245.73420810001	0.0999971996061504
156541	100	403	stimuli/movArt/bus/ma_bus08.jpg                  	1	6	1	ma_bus08.jpg         	movArt   	2	bus       	3	bus08       	37	not_alive	0	moves	1	artefact	0	n	0	0        	 	0.0	0	245.784232200123	245.884227500297	0.0999953001737595
156691	100	404	stimuli/nonmovNat/sand/nmn_sand10.jpg            	1	6	1	nmn_sand10.jpg       	nonmovNat	5	sand      	31	sand10      	319	not_alive	0	still	0	natural 	1	n	0	0        	 	0.0	0	245.934218100272	246.034230899997	0.100012799724936
156841	100	405	stimuli/movArt/boat/ma_boat03.jpg                	1	6	1	ma_boat03.jpg        	movArt   	2	boat      	2	boat03      	22	not_alive	0	moves	1	artefact	0	n	0	0        	 	0.0	0	246.084228800144	246.184216600377	0.0999878002330661
156991	100	406	stimuli/plant2/lemontree/plant_lemontree03.jpg   	1	6	1	plant_lemontree03.jpg	plant2   	7	lemontree 	22	lemontree03 	222	alive    	1	still	0	natural 	1	n	0	0        	 	0.0	0	246.234273200389	246.334234700073	0.0999614996835589
157141	100	407	stimuli/animals2/pigeon/animal_pigeon09.jpg      	1	6	1	animal_pigeon09.jpg  	animals2 	1	pigeon    	28	pigeon09    	288	alive    	1	moves	1	natural 	1	n	0	0        	 	0.0	0	246.384230200201	246.484222900122	0.0999926999211311
157291	100	408	stimuli/plant/vine/plant_vine08.jpg              	1	6	1	plant_vine08.jpg     	plant    	6	vine      	36	vine08      	367	alive    	1	still	0	natural 	1	n	0	0        	 	0.0	0	246.534233000129	246.634226400405	0.0999934002757072
157441	100	409	stimuli/plant2/palmtree/plant_palmtree01.jpg     	1	6	1	plant_palmtree01.jpg 	plant2   	7	palmtree  	27	palmtree01  	270	alive    	1	still	0	natural 	1	n	0	0        	 	0.0	0	246.684251900297	246.784233000129	0.099981099832803
157591	100	410	stimuli/nonmovNat/rock/nmn_rock01.jpg            	1	6	1	nmn_rock01.jpg       	nonmovNat	5	rock      	30	rock01      	300	not_alive	0	still	0	natural 	1	n	0	0        	 	0.0	0	246.834241100121	246.934233700391	0.0999926002696156
157741	100	411	stimuli/plant2/clover/plant_clover03.jpg         	1	6	1	plant_clover03.jpg   	plant2   	7	clover    	9	clover03    	92	alive    	1	still	0	natural 	1	n	0	0        	 	0.0	0	246.98424490029	247.084254600108	0.100009699817747
157891	100	412	stimuli/animals/cat/animal_cat06.jpg             	1	6	1	animal_cat06.jpg     	animals  	0	cat       	6	cat06       	65	alive    	1	moves	1	natural 	1	n	0	0        	 	0.0	0	247.134263399988	247.234241900034	0.099978500045836
158041	100	413	stimuli/animals2/tiger/animal_tiger01.jpg        	1	6	1	animal_tiger01.jpg   	animals2 	1	tiger     	33	tiger01     	330	alive    	1	moves	1	natural 	1	n	0	0        	 	0.0	0	247.284267800394	247.384250100236	0.0999822998419404
