onset	duration	eventnumber	stimulus_file	blockno	trialno	is_faststream	stim	stim_category	category_number	exemplar	exemplar_number	image_name	image_number	aliveness	aliveness_bin	movement	movement_bin	naturalness	naturalness_bin	response_hand_alive	istarget	response	keypressed	rt	correct	time_stimon	time_stimoff	stimdur
77038	100	0	stimuli/movArt/car/ma_car06.jpg                  	1	1	1	ma_car06.jpg         	movArt   	2	car       	5	car06       	55	not_alive	0	moves	1	artefact	0	n	0	0        	 	0.0	0	54.5742876000004	54.6742652999819	0.0999776999815367
77188	100	1	stimuli/plant/grass/plant_grass03.jpg            	1	1	1	plant_grass03.jpg    	plant    	6	grass     	17	grass03     	172	alive    	1	still	0	natural 	1	n	0	0        	 	0.0	0	54.724294100015	54.8242797999992	0.099985699984245
77338	100	2	stimuli/nonmovNat/sand/nmn_sand02.jpg            	1	1	1	nmn_sand02.jpg       	nonmovNat	5	sand      	31	sand02      	311	not_alive	0	still	0	natural 	1	n	0	0        	 	0.0	0	54.874285500031	54.9742666999809	0.0999811999499798
77488	100	3	stimuli/animals2/whale/animal_whale04.jpg        	1	1	1	animal_whale04.jpg   	animals2 	1	whale     	39	whale04     	393	alive    	1	moves	1	natural 	1	n	0	0        	 	0.0	0	55.0243113000179	55.1243049000041	0.0999935999861918
77638	100	4	stimuli/nonmovArt/clothespeg/nma_clothespeg01.jpg	1	1	1	nma_clothespeg01.jpg 	nonmovArt	4	clothespeg	8	clothespeg01	80	not_alive	0	still	0	artefact	0	n	0	0        	 	0.0	0	55.1743150000111	55.2742929999949	0.0999779999838211
77788	100	5	stimuli/movArt/train/ma_train04.jpg              	1	1	1	ma_train04.jpg       	movArt   	2	train     	34	train04     	343	not_alive	0	moves	1	artefact	0	n	0	0        	 	0.0	0	55.3243209000211	55.4243111999822	0.099990299961064
77938	100	6	stimuli/movNat/river/mn_river10.jpg              	1	1	1	mn_river10.jpg       	movNat   	3	river     	29	river10     	299	not_alive	0	moves	1	natural 	1	n	0	0        	 	0.0	0	55.4743233000045	55.5743165999884	0.0999932999839075
78088	100	7	stimuli/plant2/palmtree/plant_palmtree08.jpg     	1	1	1	plant_palmtree08.jpg 	plant2   	7	palmtree  	27	palmtree08  	277	alive    	1	still	0	natural 	1	n	0	0        	 	0.0	0	55.6248170000035	55.7243095000158	0.0994925000122748
78238	100	8	stimuli/plant2/palmtree/plant_palmtree02.jpg     	1	1	1	plant_palmtree02.jpg 	plant2   	7	palmtree  	27	palmtree02  	271	alive    	1	still	0	natural 	1	n	0	0        	 	0.0	0	55.7743077999912	55.8743134000106	0.100005600019358
78388	100	9	stimuli/movArt/bus/ma_bus05.jpg                  	1	1	1	ma_bus05.jpg         	movArt   	2	bus       	3	bus05       	34	not_alive	0	moves	1	artefact	0	n	0	0        	 	0.0	0	55.9243127999944	56.0243264000164	0.100013600022066
78538	100	10	stimuli/animals/cat/animal_cat08.jpg             	1	1	1	animal_cat08.jpg     	animals  	0	cat       	6	cat08       	67	alive    	1	moves	1	natural 	1	n	0	0        	 	0.0	0	56.0743117000093	56.1743084000191	0.0999967000097968
78688	100	11	stimuli/plant2/clover/plant_clover03.jpg         	1	1	1	plant_clover03.jpg   	plant2   	7	clover    	9	clover03    	92	alive    	1	still	0	natural 	1	n	1	0        	 	0.0	0	56.2243971999851	56.3243121000123	0.0999149000272155
78838	100	12	stimuli/nonmovNat/cliff/nmn_cliff10.jpg          	1	1	1	nmn_cliff10.jpg      	nonmovNat	5	cliff     	7	cliff10     	79	not_alive	0	still	0	natural 	1	n	0	0        	 	0.0	0	56.3743205000064	56.4743159000063	0.0999953999998979
78988	100	13	stimuli/plant2/moss/plant_moss04.jpg             	1	1	1	plant_moss04.jpg     	plant2   	7	moss      	25	moss04      	253	alive    	1	still	0	natural 	1	n	0	1        	f	0.391953900048975	1	56.5243301999872	56.6243216000148	0.0999914000276476
79138	100	14	stimuli/animals2/pigeon/animal_pigeon06.jpg      	1	1	1	animal_pigeon06.jpg  	animals2 	1	pigeon    	28	pigeon06    	285	alive    	1	moves	1	natural 	1	n	0	0        	 	0.0	0	56.6743289000005	56.7743474000017	0.10001850000117
79288	100	15	stimuli/nonmovNat/rock/nmn_rock03.jpg            	1	1	1	nmn_rock03.jpg       	nonmovNat	5	rock      	30	rock03      	302	not_alive	0	still	0	natural 	1	n	0	0        	 	0.0	0	56.8243559999974	56.9243522000033	0.0999962000059895
79438	100	16	stimuli/plant2/lemontree/plant_lemontree10.jpg   	1	1	1	plant_lemontree10.jpg	plant2   	7	lemontree 	22	lemontree10 	229	alive    	1	still	0	natural 	1	n	0	0        	 	0.0	0	56.9743596999906	57.0743550999905	0.0999953999998979
79588	100	17	stimuli/animals2/tiger/animal_tiger07.jpg        	1	1	1	animal_tiger07.jpg   	animals2 	1	tiger     	33	tiger07     	336	alive    	1	moves	1	natural 	1	n	0	0        	 	0.0	0	57.1243676000158	57.2243591999868	0.0999915999709628
79738	100	18	stimuli/animals2/whale/animal_whale01.jpg        	1	1	1	animal_whale01.jpg   	animals2 	1	whale     	39	whale01     	390	alive    	1	moves	1	natural 	1	n	0	0        	 	0.0	0	57.2743694999954	57.3743499999982	0.0999805000028573
79888	100	19	stimuli/nonmovArt/lock/nma_lock06.jpg            	1	1	1	nma_lock06.jpg       	nonmovArt	4	lock      	24	lock06      	245	not_alive	0	still	0	artefact	0	n	0	0        	 	0.0	0	57.4243766000145	57.5243504000246	0.0999738000100478
80038	100	20	stimuli/movArt/boat/ma_boat08.jpg                	1	1	1	ma_boat08.jpg        	movArt   	2	boat      	2	boat08      	27	not_alive	0	moves	1	artefact	0	n	0	0        	 	0.0	0	57.5743779999903	57.6743902000017	0.100012200011406
80188	100	21	stimuli/movNat/waves/mn_waves03.jpg              	1	1	1	mn_waves03.jpg       	movNat   	3	waves     	38	waves03     	382	not_alive	0	moves	1	natural 	1	n	0	0        	 	0.0	0	57.7243806000333	57.824361499981	0.0999808999476954
80338	100	22	stimuli/movArt/boat/ma_boat03.jpg                	1	1	1	ma_boat03.jpg        	movArt   	2	boat      	2	boat03      	22	not_alive	0	moves	1	artefact	0	n	0	0        	 	0.0	0	57.8743900000118	57.9743881000322	0.0999981000204571
80488	100	23	stimuli/movNat/waterfall/mn_waterfall06.jpg      	1	1	1	mn_waterfall06.jpg   	movNat   	3	waterfall 	37	waterfall06 	375	not_alive	0	moves	1	natural 	1	n	1	0        	 	0.0	0	58.0243727000197	58.1243662000052	0.0999934999854304
80638	100	24	stimuli/plant/grass/plant_grass02.jpg            	1	1	1	plant_grass02.jpg    	plant    	6	grass     	17	grass02     	171	alive    	1	still	0	natural 	1	n	0	0        	 	0.0	0	58.1743942000321	58.2743863000069	0.0999920999747701
80788	100	25	stimuli/movArt/helicopter/ma_helicopter01.jpg    	1	1	1	ma_helicopter01.jpg  	movArt   	2	helicopter	19	helicopter01	190	not_alive	0	moves	1	artefact	0	n	0	1        	f	0.292263399984222	1	58.3243828000268	58.4243918000139	0.10000899998704
80938	100	26	stimuli/nonmovArt/headphones/nma_headphones08.jpg	1	1	1	nma_headphones08.jpg 	nonmovArt	4	headphones	18	headphones08	187	not_alive	0	still	0	artefact	0	n	0	0        	 	0.0	0	58.4744012000156	58.5743988000322	0.0999976000166498
81088	100	27	stimuli/nonmovNat/rock/nmn_rock08.jpg            	1	1	1	nmn_rock08.jpg       	nonmovNat	5	rock      	30	rock08      	307	not_alive	0	still	0	natural 	1	n	0	0        	 	0.0	0	58.6244064000202	58.7243830999942	0.0999766999739222
81238	100	28	stimuli/nonmovNat/cliff/nmn_cliff06.jpg          	1	1	1	nmn_cliff06.jpg      	nonmovNat	5	cliff     	7	cliff06     	75	not_alive	0	still	0	natural 	1	n	0	0        	 	0.0	0	58.7744086000021	58.8744016999845	0.0999930999823846
81388	100	29	stimuli/animals/dolphin/animal_dolphin10.jpg     	1	1	1	animal_dolphin10.jpg 	animals  	0	dolphin   	12	dolphin10   	129	alive    	1	moves	1	natural 	1	n	0	0        	 	0.0	0	58.9243915000116	59.0243865000084	0.0999949999968521
81538	100	30	stimuli/nonmovArt/bench/nma_bench04.jpg          	1	1	1	nma_bench04.jpg      	nonmovArt	4	bench     	1	bench04     	13	not_alive	0	still	0	artefact	0	n	0	0        	 	0.0	0	59.0743926999858	59.1743960999884	0.100003400002606
81688	100	31	stimuli/movNat/fire/mn_fire05.jpg                	1	1	1	mn_fire05.jpg        	movNat   	3	fire      	15	fire05      	154	not_alive	0	moves	1	natural 	1	n	0	0        	 	0.0	0	59.2244127999875	59.3243988000322	0.099986000044737
81838	100	32	stimuli/nonmovArt/mug/nma_mug01.jpg              	1	1	1	nma_mug01.jpg        	nonmovArt	4	mug       	26	mug01       	260	not_alive	0	still	0	artefact	0	n	0	0        	 	0.0	0	59.3744112999993	59.474392700009	0.0999814000097103
81988	100	33	stimuli/animals2/tiger/animal_tiger07.jpg        	1	1	1	animal_tiger07.jpg   	animals2 	1	tiger     	33	tiger07     	336	alive    	1	moves	1	natural 	1	n	0	0        	 	0.0	0	59.5244066999876	59.6244004000328	0.099993700045161
82138	100	34	stimuli/nonmovArt/lock/nma_lock04.jpg            	1	1	1	nma_lock04.jpg       	nonmovArt	4	lock      	24	lock04      	243	not_alive	0	still	0	artefact	0	n	0	1        	f	0.0	0	59.6744099000352	59.7744064999861	0.0999965999508277
82288	100	35	stimuli/movNat/fire/mn_fire06.jpg                	1	1	1	mn_fire06.jpg        	movNat   	3	fire      	15	fire06      	155	not_alive	0	moves	1	natural 	1	n	0	0        	 	0.0	0	59.824411300011	59.9244025000371	0.0999912000261247
82438	100	36	stimuli/movNat/waterfall/mn_waterfall06.jpg      	1	1	1	mn_waterfall06.jpg   	movNat   	3	waterfall 	37	waterfall06 	375	not_alive	0	moves	1	natural 	1	n	0	0        	 	0.0	0	59.9744118999806	60.0744086999912	0.0999968000105582
82588	100	37	stimuli/plant/tree/plant_tree04.jpg              	1	1	1	plant_tree04.jpg     	plant    	6	tree      	35	tree04      	353	alive    	1	still	0	natural 	1	n	0	0        	 	0.0	0	60.1244192000013	60.2244117999799	0.0999925999785774
82738	100	38	stimuli/animals/eagle/animal_eagle07.jpg         	1	1	1	animal_eagle07.jpg   	animals  	0	eagle     	13	eagle07     	136	alive    	1	moves	1	natural 	1	n	0	0        	 	0.0	0	60.2744343000231	60.3744111999986	0.0999768999754451
82888	100	39	stimuli/plant2/clover/plant_clover07.jpg         	1	1	1	plant_clover07.jpg   	plant2   	7	clover    	9	clover07    	96	alive    	1	still	0	natural 	1	n	0	0        	 	0.0	0	60.4244237000239	60.5244189000223	0.099995199998375
83038	100	40	stimuli/plant/vine/plant_vine08.jpg              	1	1	1	plant_vine08.jpg     	plant    	6	vine      	36	vine08      	367	alive    	1	still	0	natural 	1	n	0	0        	 	0.0	0	60.5744285000255	60.6744197999942	0.0999912999686785
83188	100	41	stimuli/animals2/lemur/animal_lemur08.jpg        	1	1	1	animal_lemur08.jpg   	animals2 	1	lemur     	23	lemur08     	237	alive    	1	moves	1	natural 	1	n	0	0        	 	0.0	0	60.7244343000348	60.8244250999996	0.0999907999648713
83338	100	42	stimuli/nonmovArt/bench/nma_bench02.jpg          	1	1	1	nma_bench02.jpg      	nonmovArt	4	bench     	1	bench02     	11	not_alive	0	still	0	artefact	0	n	0	0        	 	0.0	0	60.8744386000326	60.97442340001	0.099984799977392
83488	100	43	stimuli/movNat/river/mn_river04.jpg              	1	1	1	mn_river04.jpg       	movNat   	3	river     	29	river04     	293	not_alive	0	moves	1	natural 	1	n	0	0        	 	0.0	0	61.0244406000129	61.1244523000205	0.100011700007599
83638	100	44	stimuli/plant/grass/plant_grass06.jpg            	1	1	1	plant_grass06.jpg    	plant    	6	grass     	17	grass06     	175	alive    	1	still	0	natural 	1	n	0	0        	 	0.0	0	61.1744433999993	61.274435600033	0.0999922000337392
83788	100	45	stimuli/plant2/moss/plant_moss09.jpg             	1	1	1	plant_moss09.jpg     	plant2   	7	moss      	25	moss09      	258	alive    	1	still	0	natural 	1	n	0	0        	 	0.0	0	61.3244505000184	61.4244425999932	0.0999920999747701
83938	100	46	stimuli/nonmovArt/bench/nma_bench01.jpg          	1	1	1	nma_bench01.jpg      	nonmovArt	4	bench     	1	bench01     	10	not_alive	0	still	0	artefact	0	n	0	0        	 	0.0	0	61.4744476000196	61.5744456999819	0.0999980999622494
84088	100	47	stimuli/plant/cactus/plant_cactus03.jpg          	1	1	1	plant_cactus03.jpg   	plant    	6	cactus    	4	cactus03    	42	alive    	1	still	0	natural 	1	n	0	0        	 	0.0	0	61.624458300008	61.7244914000039	0.100033099995926
84238	100	48	stimuli/animals2/bee/animal_bee06.jpg            	1	1	1	animal_bee06.jpg     	animals2 	1	bee       	0	bee06       	5	alive    	1	moves	1	natural 	1	n	0	0        	 	0.0	0	61.7744566000183	61.8744767000317	0.100020100013353
84388	100	49	stimuli/animals2/lemur/animal_lemur02.jpg        	1	1	1	animal_lemur02.jpg   	animals2 	1	lemur     	23	lemur02     	231	alive    	1	moves	1	natural 	1	n	0	0        	 	0.0	0	61.9244865000364	62.0244773000013	0.0999907999648713
84538	100	50	stimuli/nonmovNat/shell/nmn_shell10.jpg          	1	1	1	nmn_shell10.jpg      	nonmovNat	5	shell     	32	shell10     	329	not_alive	0	still	0	natural 	1	n	0	0        	 	0.0	0	62.0744878000114	62.1744799999869	0.0999921999755316
84688	100	51	stimuli/animals/dolphin/animal_dolphin08.jpg     	1	1	1	animal_dolphin08.jpg 	animals  	0	dolphin   	12	dolphin08   	127	alive    	1	moves	1	natural 	1	n	0	0        	 	0.0	0	62.2245053999941	62.3244853999931	0.09997999999905
84838	100	52	stimuli/nonmovNat/shell/nmn_shell05.jpg          	1	1	1	nmn_shell05.jpg      	nonmovNat	5	shell     	32	shell05     	324	not_alive	0	still	0	natural 	1	n	0	0        	 	0.0	0	62.3744944999926	62.4744878000347	0.0999933000421152
84988	100	53	stimuli/plant/cactus/plant_cactus04.jpg          	1	1	1	plant_cactus04.jpg   	plant    	6	cactus    	4	cactus04    	43	alive    	1	still	0	natural 	1	n	0	0        	 	0.0	0	62.524501500011	62.6244925000356	0.0999910000246018
85138	100	54	stimuli/movNat/waterfall/mn_waterfall10.jpg      	1	1	1	mn_waterfall10.jpg   	movNat   	3	waterfall 	37	waterfall10 	379	not_alive	0	moves	1	natural 	1	n	0	0        	 	0.0	0	62.6744914000155	62.7744836999918	0.099992299976293
85288	100	55	stimuli/plant/tree/plant_tree07.jpg              	1	1	1	plant_tree07.jpg     	plant    	6	tree      	35	tree07      	356	alive    	1	still	0	natural 	1	n	0	0        	 	0.0	0	62.8244845999871	62.9244822000037	0.0999976000166498
85438	100	56	stimuli/plant/flower/plant_flower07.jpg          	1	1	1	plant_flower07.jpg   	plant    	6	flower    	16	flower07    	166	alive    	1	still	0	natural 	1	n	0	0        	 	0.0	0	62.974490499997	63.0745035000145	0.100013000017498
85588	100	57	stimuli/nonmovArt/clothespeg/nma_clothespeg02.jpg	1	1	1	nma_clothespeg02.jpg 	nonmovArt	4	clothespeg	8	clothespeg02	81	not_alive	0	still	0	artefact	0	n	0	0        	 	0.0	0	63.1244970000116	63.2244992000051	0.100002199993469
85738	100	58	stimuli/nonmovNat/rock/nmn_rock02.jpg            	1	1	1	nmn_rock02.jpg       	nonmovNat	5	rock      	30	rock02      	301	not_alive	0	still	0	natural 	1	n	0	0        	 	0.0	0	63.2744982999866	63.3744937999872	0.0999955000006594
85888	100	59	stimuli/animals/horse/animal_horse01.jpg         	1	1	1	animal_horse01.jpg   	animals  	0	horse     	20	horse01     	200	alive    	1	moves	1	natural 	1	n	0	0        	 	0.0	0	63.4245047000004	63.524499799998	0.0999950999976136
86038	100	60	stimuli/nonmovNat/crystal/nmn_crystal04.jpg      	1	1	1	nmn_crystal04.jpg    	nonmovNat	5	crystal   	10	crystal04   	103	not_alive	0	still	0	natural 	1	n	0	0        	 	0.0	0	63.5745371999801	63.674499500019	0.0999623000388965
86188	100	61	stimuli/plant/cactus/plant_cactus03.jpg          	1	1	1	plant_cactus03.jpg   	plant    	6	cactus    	4	cactus03    	42	alive    	1	still	0	natural 	1	n	0	0        	 	0.0	0	63.7245372000034	63.8245351000223	0.0999979000189342
86338	100	62	stimuli/movNat/fire/mn_fire06.jpg                	1	1	1	mn_fire06.jpg        	movNat   	3	fire      	15	fire06      	155	not_alive	0	moves	1	natural 	1	n	0	0        	 	0.0	0	63.8745460000355	63.9745388000156	0.0999927999801002
86488	100	63	stimuli/animals/dog/animal_dog02.jpg             	1	1	1	animal_dog02.jpg     	animals  	0	dog       	11	dog02       	111	alive    	1	moves	1	natural 	1	n	0	0        	 	0.0	0	64.0245483000181	64.1245410999982	0.0999927999801002
86638	100	64	stimuli/animals/dog/animal_dog01.jpg             	1	1	1	animal_dog01.jpg     	animals  	0	dog       	11	dog01       	110	alive    	1	moves	1	natural 	1	n	0	0        	 	0.0	0	64.1745351999998	64.2745544000063	0.1000192000065
86788	100	65	stimuli/plant2/palmtree/plant_palmtree10.jpg     	1	1	1	plant_palmtree10.jpg 	plant2   	7	palmtree  	27	palmtree10  	279	alive    	1	still	0	natural 	1	n	0	0        	 	0.0	0	64.3245513000293	64.4245480999816	0.0999967999523506
86938	100	66	stimuli/animals2/pigeon/animal_pigeon03.jpg      	1	1	1	animal_pigeon03.jpg  	animals2 	1	pigeon    	28	pigeon03    	282	alive    	1	moves	1	natural 	1	n	0	0        	 	0.0	0	64.4745371000026	64.5745291000349	0.0999920000322163
87088	100	67	stimuli/plant2/fern/plant_fern06.jpg             	1	1	1	plant_fern06.jpg     	plant2   	7	fern      	14	fern06      	145	alive    	1	still	0	natural 	1	n	1	0        	 	0.0	0	64.6245428000111	64.7245459000114	0.100003100000322
87238	100	68	stimuli/nonmovNat/sand/nmn_sand02.jpg            	1	1	1	nmn_sand02.jpg       	nonmovNat	5	sand      	31	sand02      	311	not_alive	0	still	0	natural 	1	n	0	0        	 	0.0	0	64.7745428000344	64.8745370000252	0.0999941999907605
87388	100	69	stimuli/plant2/lemontree/plant_lemontree09.jpg   	1	1	1	plant_lemontree09.jpg	plant2   	7	lemontree 	22	lemontree09 	228	alive    	1	still	0	natural 	1	n	0	1        	f	0.304266699997242	1	64.9245577999973	65.0245384000009	0.0999806000036188
87538	100	70	stimuli/movArt/car/ma_car03.jpg                  	1	1	1	ma_car03.jpg         	movArt   	2	car       	5	car03       	52	not_alive	0	moves	1	artefact	0	n	0	0        	 	0.0	0	65.074557600019	65.1745405999827	0.0999829999636859
87688	100	71	stimuli/animals/horse/animal_horse02.jpg         	1	1	1	animal_horse02.jpg   	animals  	0	horse     	20	horse02     	201	alive    	1	moves	1	natural 	1	n	0	0        	 	0.0	0	65.2245722999796	65.3245765999891	0.100004300009459
87838	100	72	stimuli/movArt/bus/ma_bus04.jpg                  	1	1	1	ma_bus04.jpg         	movArt   	2	bus       	3	bus04       	33	not_alive	0	moves	1	artefact	0	n	0	0        	 	0.0	0	65.3745738000143	65.474567600002	0.0999937999877147
87988	100	73	stimuli/animals2/whale/animal_whale08.jpg        	1	1	1	animal_whale08.jpg   	animals2 	1	whale     	39	whale08     	397	alive    	1	moves	1	natural 	1	n	0	0        	 	0.0	0	65.5245801000274	65.6245747000212	0.0999945999938063
88138	100	74	stimuli/nonmovNat/shell/nmn_shell09.jpg          	1	1	1	nmn_shell09.jpg      	nonmovNat	5	shell     	32	shell09     	328	not_alive	0	still	0	natural 	1	n	0	0        	 	0.0	0	65.6745929000317	65.7745775000076	0.0999845999758691
88288	100	75	stimuli/plant2/clover/plant_clover05.jpg         	1	1	1	plant_clover05.jpg   	plant2   	7	clover    	9	clover05    	94	alive    	1	still	0	natural 	1	n	0	0        	 	0.0	0	65.8245831999811	65.9245809999993	0.0999978000181727
88438	100	76	stimuli/plant/vine/plant_vine03.jpg              	1	1	1	plant_vine03.jpg     	plant    	6	vine      	36	vine03      	362	alive    	1	still	0	natural 	1	n	0	0        	 	0.0	0	65.9745906000026	66.0745995999896	0.10000899998704
88588	100	77	stimuli/movNat/hotspring/mn_hotspring09.jpg      	1	1	1	mn_hotspring09.jpg   	movNat   	3	hotspring 	21	hotspring09 	218	not_alive	0	moves	1	natural 	1	n	0	0        	 	0.0	0	66.1246038000099	66.2245986000053	0.0999947999953292
88738	100	78	stimuli/nonmovArt/mug/nma_mug02.jpg              	1	1	1	nma_mug02.jpg        	nonmovArt	4	mug       	26	mug02       	261	not_alive	0	still	0	artefact	0	n	0	0        	 	0.0	0	66.2746072000009	66.374602099997	0.0999948999960907
88888	100	79	stimuli/nonmovNat/cliff/nmn_cliff09.jpg          	1	1	1	nmn_cliff09.jpg      	nonmovNat	5	cliff     	7	cliff09     	78	not_alive	0	still	0	natural 	1	n	0	0        	 	0.0	0	66.424595199991	66.5245924000046	0.099997200013604
94555	100	80	stimuli/movNat/waves/mn_waves03.jpg              	1	2	1	mn_waves03.jpg       	movNat   	3	waves     	38	waves03     	382	not_alive	0	moves	1	natural 	1	n	0	0        	 	0.0	0	72.0914095999906	72.1913969999878	0.0999873999971896
94705	100	81	stimuli/animals2/pigeon/animal_pigeon08.jpg      	1	2	1	animal_pigeon08.jpg  	animals2 	1	pigeon    	28	pigeon08    	287	alive    	1	moves	1	natural 	1	n	0	0        	 	0.0	0	72.2414115000283	72.3414046000107	0.0999930999823846
94855	100	82	stimuli/plant/flower/plant_flower08.jpg          	1	2	1	plant_flower08.jpg   	plant    	6	flower    	16	flower08    	167	alive    	1	still	0	natural 	1	n	0	0        	 	0.0	0	72.3914135000086	72.4914074999979	0.0999939999892376
95005	100	83	stimuli/plant/tree/plant_tree08.jpg              	1	2	1	plant_tree08.jpg     	plant    	6	tree      	35	tree08      	357	alive    	1	still	0	natural 	1	n	0	0        	 	0.0	0	72.5414212000323	72.6414135000086	0.099992299976293
95155	100	84	stimuli/movArt/helicopter/ma_helicopter08.jpg    	1	2	1	ma_helicopter08.jpg  	movArt   	2	helicopter	19	helicopter08	197	not_alive	0	moves	1	artefact	0	n	0	0        	 	0.0	0	72.6914214999997	72.7914285000297	0.100007000030018
95305	100	85	stimuli/animals/cat/animal_cat06.jpg             	1	2	1	animal_cat06.jpg     	animals  	0	cat       	6	cat06       	65	alive    	1	moves	1	natural 	1	n	0	0        	 	0.0	0	72.8414331999957	72.9414348999853	0.100001699989662
95455	100	86	stimuli/nonmovArt/mug/nma_mug09.jpg              	1	2	1	nma_mug09.jpg        	nonmovArt	4	mug       	26	mug09       	268	not_alive	0	still	0	artefact	0	n	0	0        	 	0.0	0	72.991450600035	73.0914387999801	0.0999881999450736
95605	100	87	stimuli/nonmovArt/headphones/nma_headphones09.jpg	1	2	1	nma_headphones09.jpg 	nonmovArt	4	headphones	18	headphones09	188	not_alive	0	still	0	artefact	0	n	0	0        	 	0.0	0	73.1414488999872	73.2414469000068	0.0999980000196956
95755	100	88	stimuli/animals2/bee/animal_bee02.jpg            	1	2	1	animal_bee02.jpg     	animals2 	1	bee       	0	bee02       	1	alive    	1	moves	1	natural 	1	n	0	0        	 	0.0	0	73.291458200023	73.391437800019	0.0999795999960042
95905	100	89	stimuli/nonmovNat/crystal/nmn_crystal01.jpg      	1	2	1	nmn_crystal01.jpg    	nonmovNat	5	crystal   	10	crystal01   	100	not_alive	0	still	0	natural 	1	n	0	0        	 	0.0	0	73.4414571999805	73.5414491000119	0.0999919000314549
96055	100	90	stimuli/plant2/moss/plant_moss08.jpg             	1	2	1	plant_moss08.jpg     	plant2   	7	moss      	25	moss08      	257	alive    	1	still	0	natural 	1	n	0	0        	 	0.0	0	73.5914608000312	73.6914557000273	0.0999948999960907
96205	100	91	stimuli/movArt/bus/ma_bus02.jpg                  	1	2	1	ma_bus02.jpg         	movArt   	2	bus       	3	bus02       	31	not_alive	0	moves	1	artefact	0	n	0	0        	 	0.0	0	73.7414649000275	73.841460900032	0.0999960000044666
96355	100	92	stimuli/animals2/bee/animal_bee08.jpg            	1	2	1	animal_bee08.jpg     	animals2 	1	bee       	0	bee08       	7	alive    	1	moves	1	natural 	1	n	0	0        	 	0.0	0	73.8914714999846	73.9914618000039	0.0999903000192717
96505	100	93	stimuli/plant2/lemontree/plant_lemontree08.jpg   	1	2	1	plant_lemontree08.jpg	plant2   	7	lemontree 	22	lemontree08 	227	alive    	1	still	0	natural 	1	n	0	0        	 	0.0	0	74.0414712000056	74.141489200003	0.100017999997362
96655	100	94	stimuli/movNat/hotspring/mn_hotspring06.jpg      	1	2	1	mn_hotspring06.jpg   	movNat   	3	hotspring 	21	hotspring06 	215	not_alive	0	moves	1	natural 	1	n	0	0        	 	0.0	0	74.1914725999814	74.2914705000003	0.0999979000189342
96805	100	95	stimuli/nonmovArt/headphones/nma_headphones10.jpg	1	2	1	nma_headphones10.jpg 	nonmovArt	4	headphones	18	headphones10	189	not_alive	0	still	0	artefact	0	n	0	0        	 	0.0	0	74.3414957000059	74.4414756000042	0.0999798999982886
96955	100	96	stimuli/nonmovNat/crystal/nmn_crystal03.jpg      	1	2	1	nmn_crystal03.jpg    	nonmovNat	5	crystal   	10	crystal03   	102	not_alive	0	still	0	natural 	1	n	0	0        	 	0.0	0	74.4914817999816	74.5914752000244	0.0999934000428766
97105	100	97	stimuli/plant2/fern/plant_fern02.jpg             	1	2	1	plant_fern02.jpg     	plant2   	7	fern      	14	fern02      	141	alive    	1	still	0	natural 	1	n	0	0        	 	0.0	0	74.6414624000317	74.7414823999861	0.100019999954384
97255	100	98	stimuli/plant2/fern/plant_fern08.jpg             	1	2	1	plant_fern08.jpg     	plant2   	7	fern      	14	fern08      	147	alive    	1	still	0	natural 	1	n	0	0        	 	0.0	0	74.7914931999985	74.8914847000269	0.0999915000284091
97405	100	99	stimuli/animals/horse/animal_horse03.jpg         	1	2	1	animal_horse03.jpg   	animals  	0	horse     	20	horse03     	202	alive    	1	moves	1	natural 	1	n	0	0        	 	0.0	0	74.9414919000119	75.041490899981	0.0999989999691024
97555	100	100	stimuli/animals/eagle/animal_eagle05.jpg         	1	2	1	animal_eagle05.jpg   	animals  	0	eagle     	13	eagle05     	134	alive    	1	moves	1	natural 	1	n	0	0        	 	0.0	0	75.0915016999934	75.191491000005	0.0999893000116572
97705	100	101	stimuli/movArt/train/ma_train01.jpg              	1	2	1	ma_train01.jpg       	movArt   	2	train     	34	train01     	340	not_alive	0	moves	1	artefact	0	n	0	0        	 	0.0	0	75.2414978999877	75.341494399996	0.0999965000082739
97855	100	102	stimuli/movArt/boat/ma_boat08.jpg                	1	2	1	ma_boat08.jpg        	movArt   	2	boat      	2	boat08      	27	not_alive	0	moves	1	artefact	0	n	0	0        	 	0.0	0	75.3915093999822	75.4914993999992	0.0999900000169873
98005	100	103	stimuli/animals2/lemur/animal_lemur04.jpg        	1	2	1	animal_lemur04.jpg   	animals2 	1	lemur     	23	lemur04     	233	alive    	1	moves	1	natural 	1	n	0	0        	 	0.0	0	75.5415135000367	75.6415089000366	0.0999953999998979
98155	100	104	stimuli/animals2/tiger/animal_tiger10.jpg        	1	2	1	animal_tiger10.jpg   	animals2 	1	tiger     	33	tiger10     	339	alive    	1	moves	1	natural 	1	n	0	0        	 	0.0	0	75.691513800004	75.7915061999811	0.0999923999770544
98305	100	105	stimuli/plant/flower/plant_flower05.jpg          	1	2	1	plant_flower05.jpg   	plant    	6	flower    	16	flower05    	164	alive    	1	still	0	natural 	1	n	0	0        	 	0.0	0	75.8415236999863	75.9415148000117	0.0999911000253633
98455	100	106	stimuli/movNat/hotspring/mn_hotspring07.jpg      	1	2	1	mn_hotspring07.jpg   	movNat   	3	hotspring 	21	hotspring07 	216	not_alive	0	moves	1	natural 	1	n	0	0        	 	0.0	0	75.9914969999809	76.0915148000349	0.100017800054047
98605	100	107	stimuli/animals/eagle/animal_eagle05.jpg         	1	2	1	animal_eagle05.jpg   	animals  	0	eagle     	13	eagle05     	134	alive    	1	moves	1	natural 	1	n	0	0        	 	0.0	0	76.1415248999838	76.241519000032	0.0999941000482068
98755	100	108	stimuli/nonmovArt/lock/nma_lock04.jpg            	1	2	1	nma_lock04.jpg       	nonmovArt	4	lock      	24	lock04      	243	not_alive	0	still	0	artefact	0	n	0	0        	 	0.0	0	76.2915293999831	76.3915238000336	0.0999944000504911
98905	100	109	stimuli/movNat/river/mn_river10.jpg              	1	2	1	mn_river10.jpg       	movNat   	3	river     	29	river10     	299	not_alive	0	moves	1	natural 	1	n	0	0        	 	0.0	0	76.4415336999809	76.5415301999892	0.0999965000082739
99055	100	110	stimuli/movArt/car/ma_car02.jpg                  	1	2	1	ma_car02.jpg         	movArt   	2	car       	5	car02       	51	not_alive	0	moves	1	artefact	0	n	0	0        	 	0.0	0	76.5915382999811	76.6915330000338	0.0999947000527754
99205	100	111	stimuli/animals/dolphin/animal_dolphin04.jpg     	1	2	1	animal_dolphin04.jpg 	animals  	0	dolphin   	12	dolphin04   	123	alive    	1	moves	1	natural 	1	n	0	0        	 	0.0	0	76.7415468000108	76.8415470999898	0.100000299979001
99355	100	112	stimuli/animals/dog/animal_dog06.jpg             	1	2	1	animal_dog06.jpg     	animals  	0	dog       	11	dog06       	115	alive    	1	moves	1	natural 	1	n	0	0        	 	0.0	0	76.891547599982	76.9915404000203	0.0999928000383079
99505	100	113	stimuli/nonmovArt/clothespeg/nma_clothespeg07.jpg	1	2	1	nma_clothespeg07.jpg 	nonmovArt	4	clothespeg	8	clothespeg07	86	not_alive	0	still	0	artefact	0	n	0	0        	 	0.0	0	77.0415490000159	77.1415504000033	0.100001399987377
99655	100	114	stimuli/movArt/helicopter/ma_helicopter07.jpg    	1	2	1	ma_helicopter07.jpg  	movArt   	2	helicopter	19	helicopter07	196	not_alive	0	moves	1	artefact	0	n	0	0        	 	0.0	0	77.1915562000358	77.2915475000045	0.0999912999686785
99805	100	115	stimuli/plant/vine/plant_vine10.jpg              	1	2	1	plant_vine10.jpg     	plant    	6	vine      	36	vine10      	369	alive    	1	still	0	natural 	1	n	0	0        	 	0.0	0	77.3415600000299	77.4415471000248	0.0999870999949053
99955	100	116	stimuli/animals/cat/animal_cat09.jpg             	1	2	1	animal_cat09.jpg     	animals  	0	cat       	6	cat09       	68	alive    	1	moves	1	natural 	1	n	0	0        	 	0.0	0	77.4915504999808	77.5915419000085	0.0999914000276476
100105	100	117	stimuli/movNat/waves/mn_waves02.jpg              	1	2	1	mn_waves02.jpg       	movNat   	3	waves     	38	waves02     	381	not_alive	0	moves	1	natural 	1	n	0	0        	 	0.0	0	77.6415564999916	77.7415496000322	0.0999931000405922
100255	100	118	stimuli/movArt/train/ma_train02.jpg              	1	2	1	ma_train02.jpg       	movArt   	2	train     	34	train02     	341	not_alive	0	moves	1	artefact	0	n	1	0        	 	0.0	0	77.7915593000362	77.8915507000056	0.09999139996944
100405	100	119	stimuli/nonmovNat/sand/nmn_sand02.jpg            	1	2	1	nmn_sand02.jpg       	nonmovNat	5	sand      	31	sand02      	311	not_alive	0	still	0	natural 	1	n	0	0        	 	0.0	0	77.941561100015	78.0415490000159	0.0999879000009969
100555	100	120	stimuli/movNat/fire/mn_fire01.jpg                	1	2	1	mn_fire01.jpg        	movNat   	3	fire      	15	fire01      	150	not_alive	0	moves	1	natural 	1	n	0	1        	f	0.392002599954139	1	78.0915613999823	78.1915529000107	0.0999915000284091
100705	100	121	stimuli/nonmovNat/crystal/nmn_crystal01.jpg      	1	2	1	nmn_crystal01.jpg    	nonmovNat	5	crystal   	10	crystal01   	100	not_alive	0	still	0	natural 	1	n	1	0        	 	0.0	0	78.2415645000292	78.3415577000123	0.099993199983146
100855	100	122	stimuli/plant/cactus/plant_cactus08.jpg          	1	2	1	plant_cactus08.jpg   	plant    	6	cactus    	4	cactus08    	47	alive    	1	still	0	natural 	1	n	0	0        	 	0.0	0	78.3915658000042	78.491562500014	0.0999967000097968
101005	100	123	stimuli/animals2/pigeon/animal_pigeon07.jpg      	1	2	1	animal_pigeon07.jpg  	animals2 	1	pigeon    	28	pigeon07    	286	alive    	1	moves	1	natural 	1	n	0	0        	 	0.0	0	78.5415732000256	78.6415634999867	0.099990299961064
101155	100	124	stimuli/animals2/whale/animal_whale06.jpg        	1	2	1	animal_whale06.jpg   	animals2 	1	whale     	39	whale06     	395	alive    	1	moves	1	natural 	1	n	1	0        	 	0.0	0	78.6915776000242	78.7915654000244	0.0999878000002354
101305	100	125	stimuli/plant2/lemontree/plant_lemontree08.jpg   	1	2	1	plant_lemontree08.jpg	plant2   	7	lemontree 	22	lemontree08 	227	alive    	1	still	0	natural 	1	n	0	0        	 	0.0	0	78.8415787999984	78.9415769000188	0.0999981000204571
101455	100	126	stimuli/animals/eagle/animal_eagle04.jpg         	1	2	1	animal_eagle04.jpg   	animals  	0	eagle     	13	eagle04     	133	alive    	1	moves	1	natural 	1	n	0	1        	f	0.392008199996781	1	78.9915829999954	79.0916001999867	0.100017199991271
101605	100	127	stimuli/plant2/fern/plant_fern04.jpg             	1	2	1	plant_fern04.jpg     	plant2   	7	fern      	14	fern04      	143	alive    	1	still	0	natural 	1	n	0	0        	 	0.0	0	79.1416036000009	79.2416010000161	0.0999974000151269
101755	100	128	stimuli/movNat/fire/mn_fire03.jpg                	1	2	1	mn_fire03.jpg        	movNat   	3	fire      	15	fire03      	152	not_alive	0	moves	1	natural 	1	n	0	0        	 	0.0	0	79.2916108000209	79.3916052000132	0.0999943999922834
101905	100	129	stimuli/animals2/lemur/animal_lemur01.jpg        	1	2	1	animal_lemur01.jpg   	animals2 	1	lemur     	23	lemur01     	230	alive    	1	moves	1	natural 	1	n	0	0        	 	0.0	0	79.4416166000301	79.5416068999912	0.099990299961064
102055	100	130	stimuli/movArt/car/ma_car09.jpg                  	1	2	1	ma_car09.jpg         	movArt   	2	car       	5	car09       	58	not_alive	0	moves	1	artefact	0	n	0	0        	 	0.0	0	79.5916225999827	79.691609600035	0.0999870000523515
102205	100	131	stimuli/plant2/palmtree/plant_palmtree01.jpg     	1	2	1	plant_palmtree01.jpg 	plant2   	7	palmtree  	27	palmtree01  	270	alive    	1	still	0	natural 	1	n	0	0        	 	0.0	0	79.7416307000094	79.8416177000036	0.0999869999941438
102355	100	132	stimuli/nonmovNat/sand/nmn_sand06.jpg            	1	2	1	nmn_sand06.jpg       	nonmovNat	5	sand      	31	sand06      	315	not_alive	0	still	0	natural 	1	n	0	0        	 	0.0	0	79.8916258999961	79.9916277999873	0.100001899991184
102505	100	133	stimuli/animals2/pigeon/animal_pigeon03.jpg      	1	2	1	animal_pigeon03.jpg  	animals2 	1	pigeon    	28	pigeon03    	282	alive    	1	moves	1	natural 	1	n	0	0        	 	0.0	0	80.0416377999936	80.1416394999833	0.100001699989662
102655	100	134	stimuli/plant/grass/plant_grass05.jpg            	1	2	1	plant_grass05.jpg    	plant    	6	grass     	17	grass05     	174	alive    	1	still	0	natural 	1	n	0	0        	 	0.0	0	80.1916431999998	80.2916372999898	0.0999940999899991
102805	100	135	stimuli/nonmovNat/cliff/nmn_cliff10.jpg          	1	2	1	nmn_cliff10.jpg      	nonmovNat	5	cliff     	7	cliff10     	79	not_alive	0	still	0	natural 	1	n	0	0        	 	0.0	0	80.3416455999832	80.4416398000321	0.0999942000489682
102955	100	136	stimuli/nonmovNat/shell/nmn_shell03.jpg          	1	2	1	nmn_shell03.jpg      	nonmovNat	5	shell     	32	shell03     	322	not_alive	0	still	0	natural 	1	n	0	0        	 	0.0	0	80.4916501999833	80.591629600036	0.099979400052689
103105	100	137	stimuli/animals2/tiger/animal_tiger08.jpg        	1	2	1	animal_tiger08.jpg   	animals2 	1	tiger     	33	tiger08     	337	alive    	1	moves	1	natural 	1	n	0	0        	 	0.0	0	80.6416605000268	80.741660700005	0.10000019997824
103255	100	138	stimuli/nonmovArt/bench/nma_bench08.jpg          	1	2	1	nma_bench08.jpg      	nonmovArt	4	bench     	1	bench08     	17	not_alive	0	still	0	artefact	0	n	0	0        	 	0.0	0	80.7916594999842	80.891637200024	0.0999777000397444
103405	100	139	stimuli/nonmovArt/clothespeg/nma_clothespeg06.jpg	1	2	1	nma_clothespeg06.jpg 	nonmovArt	4	clothespeg	8	clothespeg06	85	not_alive	0	still	0	artefact	0	n	0	0        	 	0.0	0	80.9416634000372	81.0416558000143	0.0999923999770544
103555	100	140	stimuli/movArt/boat/ma_boat06.jpg                	1	2	1	ma_boat06.jpg        	movArt   	2	boat      	2	boat06      	25	not_alive	0	moves	1	artefact	0	n	0	0        	 	0.0	0	81.0916743000271	81.1916584999999	0.0999841999728233
103705	100	141	stimuli/plant2/palmtree/plant_palmtree09.jpg     	1	2	1	plant_palmtree09.jpg 	plant2   	7	palmtree  	27	palmtree09  	278	alive    	1	still	0	natural 	1	n	0	0        	 	0.0	0	81.2416555000236	81.3416613999871	0.100005899963435
103855	100	142	stimuli/animals/dog/animal_dog10.jpg             	1	2	1	animal_dog10.jpg     	animals  	0	dog       	11	dog10       	119	alive    	1	moves	1	natural 	1	n	0	0        	 	0.0	0	81.391676600033	81.4916766000097	0.0999999999767169
104005	100	143	stimuli/plant/tree/plant_tree09.jpg              	1	2	1	plant_tree09.jpg     	plant    	6	tree      	35	tree09      	358	alive    	1	still	0	natural 	1	n	0	0        	 	0.0	0	81.5416790000163	81.6416581000085	0.099979099992197
104155	100	144	stimuli/movArt/train/ma_train06.jpg              	1	2	1	ma_train06.jpg       	movArt   	2	train     	34	train06     	345	not_alive	0	moves	1	artefact	0	n	0	0        	 	0.0	0	81.6916887999978	81.791686600016	0.0999978000181727
104305	100	145	stimuli/nonmovArt/headphones/nma_headphones05.jpg	1	2	1	nma_headphones05.jpg 	nonmovArt	4	headphones	18	headphones05	184	not_alive	0	still	0	artefact	0	n	1	0        	 	0.0	0	81.8416861000005	81.9416804999928	0.0999943999922834
104455	100	146	stimuli/movNat/river/mn_river06.jpg              	1	2	1	mn_river06.jpg       	movNat   	3	river     	29	river06     	295	not_alive	0	moves	1	natural 	1	n	0	0        	 	0.0	0	81.9916760000051	82.0916829000344	0.100006900029257
104605	100	147	stimuli/animals2/bee/animal_bee05.jpg            	1	2	1	animal_bee05.jpg     	animals2 	1	bee       	0	bee05       	4	alive    	1	moves	1	natural 	1	n	0	1        	f	0.392003900022246	1	82.1416940999916	82.2416883999831	0.099994299991522
104755	100	148	stimuli/nonmovNat/rock/nmn_rock09.jpg            	1	2	1	nmn_rock09.jpg       	nonmovNat	5	rock      	30	rock09      	308	not_alive	0	still	0	natural 	1	n	0	0        	 	0.0	0	82.2916979999863	82.3916887000087	0.0999907000223175
104905	100	149	stimuli/nonmovNat/cliff/nmn_cliff04.jpg          	1	2	1	nmn_cliff04.jpg      	nonmovNat	5	cliff     	7	cliff04     	73	not_alive	0	still	0	natural 	1	n	0	0        	 	0.0	0	82.4417039999971	82.5416848000023	0.0999808000051416
105055	100	150	stimuli/animals/horse/animal_horse05.jpg         	1	2	1	animal_horse05.jpg   	animals  	0	horse     	20	horse05     	204	alive    	1	moves	1	natural 	1	n	0	0        	 	0.0	0	82.5916891000234	82.6916793999844	0.099990299961064
105205	100	151	stimuli/nonmovArt/mug/nma_mug09.jpg              	1	2	1	nma_mug09.jpg        	nonmovArt	4	mug       	26	mug09       	268	not_alive	0	still	0	artefact	0	n	0	0        	 	0.0	0	82.7416934000212	82.8416956000147	0.100002199993469
105355	100	152	stimuli/plant/tree/plant_tree04.jpg              	1	2	1	plant_tree04.jpg     	plant    	6	tree      	35	tree04      	353	alive    	1	still	0	natural 	1	n	0	0        	 	0.0	0	82.8916933999863	82.9916792000295	0.0999858000432141
105505	100	153	stimuli/plant/vine/plant_vine03.jpg              	1	2	1	plant_vine03.jpg     	plant    	6	vine      	36	vine03      	362	alive    	1	still	0	natural 	1	n	0	0        	 	0.0	0	83.0416937000118	83.141682800022	0.0999891000101343
105655	100	154	stimuli/plant/vine/plant_vine09.jpg              	1	2	1	plant_vine09.jpg     	plant    	6	vine      	36	vine09      	368	alive    	1	still	0	natural 	1	n	0	0        	 	0.0	0	83.1916909000138	83.2917050999822	0.100014199968427
105805	100	155	stimuli/movArt/helicopter/ma_helicopter10.jpg    	1	2	1	ma_helicopter10.jpg  	movArt   	2	helicopter	19	helicopter10	199	not_alive	0	moves	1	artefact	0	n	0	0        	 	0.0	0	83.3417002999922	83.4416926000267	0.0999923000345007
105955	100	156	stimuli/nonmovNat/crystal/nmn_crystal07.jpg      	1	2	1	nmn_crystal07.jpg    	nonmovNat	5	crystal   	10	crystal07   	106	not_alive	0	still	0	natural 	1	n	0	0        	 	0.0	0	83.4917016000254	83.5916923999903	0.0999907999648713
106105	100	157	stimuli/plant2/moss/plant_moss10.jpg             	1	2	1	plant_moss10.jpg     	plant2   	7	moss      	25	moss10      	259	alive    	1	still	0	natural 	1	n	0	0        	 	0.0	0	83.6417058000225	83.7417024000315	0.0999966000090353
106255	100	158	stimuli/movNat/fire/mn_fire01.jpg                	1	2	1	mn_fire01.jpg        	movNat   	3	fire      	15	fire01      	150	not_alive	0	moves	1	natural 	1	n	0	0        	 	0.0	0	83.7917065999936	83.8917056000209	0.0999990000273101
106405	100	159	stimuli/animals/dog/animal_dog09.jpg             	1	2	1	animal_dog09.jpg     	animals  	0	dog       	11	dog09       	118	alive    	1	moves	1	natural 	1	n	0	0        	 	0.0	0	83.9417178999865	84.041708100005	0.0999902000185102
111672	100	160	stimuli/plant2/lemontree/plant_lemontree09.jpg   	1	3	1	plant_lemontree09.jpg	plant2   	7	lemontree 	22	lemontree09 	228	alive    	1	still	0	natural 	1	n	0	0        	 	0.0	0	89.2085307000089	89.3085336000076	0.100002899998799
111822	100	161	stimuli/movNat/waves/mn_waves08.jpg              	1	3	1	mn_waves08.jpg       	movNat   	3	waves     	38	waves08     	387	not_alive	0	moves	1	natural 	1	n	0	0        	 	0.0	0	89.3585312000359	89.4585392000154	0.100007999979425
111972	100	162	stimuli/animals2/bee/animal_bee05.jpg            	1	3	1	animal_bee05.jpg     	animals2 	1	bee       	0	bee05       	4	alive    	1	moves	1	natural 	1	n	0	0        	 	0.0	0	89.5085336000193	89.6085270000039	0.0999933999846689
112122	100	163	stimuli/plant2/palmtree/plant_palmtree08.jpg     	1	3	1	plant_palmtree08.jpg 	plant2   	7	palmtree  	27	palmtree08  	277	alive    	1	still	0	natural 	1	n	0	0        	 	0.0	0	89.6585402000346	89.7585328000132	0.0999925999785774
112272	100	164	stimuli/nonmovArt/mug/nma_mug04.jpg              	1	3	1	nma_mug04.jpg        	nonmovArt	4	mug       	26	mug04       	263	not_alive	0	still	0	artefact	0	n	0	0        	 	0.0	0	89.808542600018	89.9085357000004	0.0999930999823846
112422	100	165	stimuli/movArt/bus/ma_bus05.jpg                  	1	3	1	ma_bus05.jpg         	movArt   	2	bus       	3	bus05       	34	not_alive	0	moves	1	artefact	0	n	0	0        	 	0.0	0	89.9585475000203	90.0585396999959	0.0999921999755316
112572	100	166	stimuli/plant/cactus/plant_cactus09.jpg          	1	3	1	plant_cactus09.jpg   	plant    	6	cactus    	4	cactus09    	48	alive    	1	still	0	natural 	1	n	0	0        	 	0.0	0	90.1085475999862	90.2085487000295	0.100001100043301
112722	100	167	stimuli/movArt/bus/ma_bus08.jpg                  	1	3	1	ma_bus08.jpg         	movArt   	2	bus       	3	bus08       	37	not_alive	0	moves	1	artefact	0	n	0	0        	 	0.0	0	90.2585530999932	90.3585409999942	0.0999879000009969
112872	100	168	stimuli/nonmovNat/sand/nmn_sand05.jpg            	1	3	1	nmn_sand05.jpg       	nonmovNat	5	sand      	31	sand05      	314	not_alive	0	still	0	natural 	1	n	0	0        	 	0.0	0	90.4085545000271	90.5085447999882	0.099990299961064
113022	100	169	stimuli/plant2/clover/plant_clover06.jpg         	1	3	1	plant_clover06.jpg   	plant2   	7	clover    	9	clover06    	95	alive    	1	still	0	natural 	1	n	0	0        	 	0.0	0	90.5585562000051	90.6585481000366	0.0999919000314549
113172	100	170	stimuli/movArt/boat/ma_boat01.jpg                	1	3	1	ma_boat01.jpg        	movArt   	2	boat      	2	boat01      	20	not_alive	0	moves	1	artefact	0	n	0	0        	 	0.0	0	90.7085610000067	90.8085693999892	0.100008399982471
113322	100	171	stimuli/animals2/bee/animal_bee01.jpg            	1	3	1	animal_bee01.jpg     	animals2 	1	bee       	0	bee01       	0	alive    	1	moves	1	natural 	1	n	0	0        	 	0.0	0	90.8585644999985	90.9585689000087	0.100004400010221
113472	100	172	stimuli/nonmovNat/shell/nmn_shell04.jpg          	1	3	1	nmn_shell04.jpg      	nonmovNat	5	shell     	32	shell04     	323	not_alive	0	still	0	natural 	1	n	0	0        	 	0.0	0	91.0085743999807	91.1085611000308	0.0999867000500672
113622	100	173	stimuli/plant2/clover/plant_clover08.jpg         	1	3	1	plant_clover08.jpg   	plant2   	7	clover    	9	clover08    	97	alive    	1	still	0	natural 	1	n	0	0        	 	0.0	0	91.1585712999804	91.2585639000172	0.099992600036785
113772	100	174	stimuli/animals2/tiger/animal_tiger10.jpg        	1	3	1	animal_tiger10.jpg   	animals2 	1	tiger     	33	tiger10     	339	alive    	1	moves	1	natural 	1	n	0	0        	 	0.0	0	91.3085903000319	91.4085690000211	0.0999786999891512
113922	100	175	stimuli/nonmovNat/rock/nmn_rock09.jpg            	1	3	1	nmn_rock09.jpg       	nonmovNat	5	rock      	30	rock09      	308	not_alive	0	still	0	natural 	1	n	0	0        	 	0.0	0	91.458580000035	91.5585821000277	0.100002099992707
114072	100	176	stimuli/movNat/waves/mn_waves04.jpg              	1	3	1	mn_waves04.jpg       	movNat   	3	waves     	38	waves04     	383	not_alive	0	moves	1	natural 	1	n	0	0        	 	0.0	0	91.6085848000366	91.7085843000095	0.0999994999729097
114222	100	177	stimuli/movNat/waterfall/mn_waterfall10.jpg      	1	3	1	mn_waterfall10.jpg   	movNat   	3	waterfall 	37	waterfall10 	379	not_alive	0	moves	1	natural 	1	n	0	0        	 	0.0	0	91.7585946000181	91.8585806000046	0.0999859999865294
114372	100	178	stimuli/plant2/fern/plant_fern03.jpg             	1	3	1	plant_fern03.jpg     	plant2   	7	fern      	14	fern03      	142	alive    	1	still	0	natural 	1	n	0	0        	 	0.0	0	91.9086263999925	92.0086149999988	0.099988600006327
114522	100	179	stimuli/plant/grass/plant_grass08.jpg            	1	3	1	plant_grass08.jpg    	plant    	6	grass     	17	grass08     	177	alive    	1	still	0	natural 	1	n	1	0        	 	0.0	0	92.0585967000224	92.1586074000224	0.100010699999984
114672	100	180	stimuli/nonmovArt/headphones/nma_headphones10.jpg	1	3	1	nma_headphones10.jpg 	nonmovArt	4	headphones	18	headphones10	189	not_alive	0	still	0	artefact	0	n	0	0        	 	0.0	0	92.2086120999884	92.3086246000021	0.10001250001369
114822	100	181	stimuli/animals/cat/animal_cat02.jpg             	1	3	1	animal_cat02.jpg     	animals  	0	cat       	6	cat02       	61	alive    	1	moves	1	natural 	1	n	0	1        	f	0.300218899967149	1	92.3586315999855	92.4586172000272	0.0999856000416912
114972	100	182	stimuli/nonmovNat/cliff/nmn_cliff09.jpg          	1	3	1	nmn_cliff09.jpg      	nonmovNat	5	cliff     	7	cliff09     	78	not_alive	0	still	0	natural 	1	n	0	0        	 	0.0	0	92.5086326000164	92.6086296000285	0.0999970000120811
115122	100	183	stimuli/movArt/boat/ma_boat02.jpg                	1	3	1	ma_boat02.jpg        	movArt   	2	boat      	2	boat02      	21	not_alive	0	moves	1	artefact	0	n	0	0        	 	0.0	0	92.658641499991	92.7586391000077	0.0999976000166498
115272	100	184	stimuli/animals2/tiger/animal_tiger03.jpg        	1	3	1	animal_tiger03.jpg   	animals2 	1	tiger     	33	tiger03     	332	alive    	1	moves	1	natural 	1	n	0	0        	 	0.0	0	92.8086395999999	92.9086361000082	0.0999965000082739
115422	100	185	stimuli/plant/flower/plant_flower01.jpg          	1	3	1	plant_flower01.jpg   	plant    	6	flower    	16	flower01    	160	alive    	1	still	0	natural 	1	n	0	0        	 	0.0	0	92.9586469000205	93.0586401000037	0.099993199983146
115572	100	186	stimuli/plant2/clover/plant_clover08.jpg         	1	3	1	plant_clover08.jpg   	plant2   	7	clover    	9	clover08    	97	alive    	1	still	0	natural 	1	n	0	0        	 	0.0	0	93.1086424000096	93.2086342999828	0.0999918999732472
115722	100	187	stimuli/plant/vine/plant_vine04.jpg              	1	3	1	plant_vine04.jpg     	plant    	6	vine      	36	vine04      	363	alive    	1	still	0	natural 	1	n	0	0        	 	0.0	0	93.2586576000322	93.3586460999795	0.0999884999473579
115872	100	188	stimuli/movNat/river/mn_river07.jpg              	1	3	1	mn_river07.jpg       	movNat   	3	river     	29	river07     	296	not_alive	0	moves	1	natural 	1	n	1	0        	 	0.0	0	93.4086599000148	93.5086640000227	0.100004100007936
116022	100	189	stimuli/plant/flower/plant_flower06.jpg          	1	3	1	plant_flower06.jpg   	plant    	6	flower    	16	flower06    	165	alive    	1	still	0	natural 	1	n	0	0        	 	0.0	0	93.558675999986	93.6586505000014	0.099974500015378
116172	100	190	stimuli/plant2/moss/plant_moss10.jpg             	1	3	1	plant_moss10.jpg     	plant2   	7	moss      	25	moss10      	259	alive    	1	still	0	natural 	1	n	0	1        	f	0.292177599971183	1	93.7086521000019	93.8086593000335	0.100007200031541
116322	100	191	stimuli/nonmovArt/bench/nma_bench02.jpg          	1	3	1	nma_bench02.jpg      	nonmovArt	4	bench     	1	bench02     	11	not_alive	0	still	0	artefact	0	n	0	0        	 	0.0	0	93.8586714999983	93.9586574999848	0.0999859999865294
116472	100	192	stimuli/movArt/bus/ma_bus08.jpg                  	1	3	1	ma_bus08.jpg         	movArt   	2	bus       	3	bus08       	37	not_alive	0	moves	1	artefact	0	n	1	0        	 	0.0	0	94.0086680999957	94.1086694999831	0.100001399987377
116622	100	193	stimuli/movArt/car/ma_car03.jpg                  	1	3	1	ma_car03.jpg         	movArt   	2	car       	5	car03       	52	not_alive	0	moves	1	artefact	0	n	0	0        	 	0.0	0	94.1586770000285	94.2586551000131	0.0999780999845825
116772	100	194	stimuli/movNat/hotspring/mn_hotspring06.jpg      	1	3	1	mn_hotspring06.jpg   	movNat   	3	hotspring 	21	hotspring06 	215	not_alive	0	moves	1	natural 	1	n	0	1        	f	0.392001200001687	1	94.308674400032	94.4086728999973	0.0999984999652952
116922	100	195	stimuli/nonmovNat/crystal/nmn_crystal07.jpg      	1	3	1	nmn_crystal07.jpg    	nonmovNat	5	crystal   	10	crystal07   	106	not_alive	0	still	0	natural 	1	n	0	0        	 	0.0	0	94.4586889999918	94.5586786000058	0.0999896000139415
117072	100	196	stimuli/movNat/waterfall/mn_waterfall07.jpg      	1	3	1	mn_waterfall07.jpg   	movNat   	3	waterfall 	37	waterfall07 	376	not_alive	0	moves	1	natural 	1	n	0	0        	 	0.0	0	94.6086914000334	94.7086789000314	0.0999874999979511
117222	100	197	stimuli/movNat/waterfall/mn_waterfall02.jpg      	1	3	1	mn_waterfall02.jpg   	movNat   	3	waterfall 	37	waterfall02 	371	not_alive	0	moves	1	natural 	1	n	0	0        	 	0.0	0	94.7586844000034	94.8586882000091	0.100003800005652
117372	100	198	stimuli/animals2/lemur/animal_lemur02.jpg        	1	3	1	animal_lemur02.jpg   	animals2 	1	lemur     	23	lemur02     	231	alive    	1	moves	1	natural 	1	n	0	0        	 	0.0	0	94.9086944999872	95.0086846000049	0.0999901000177488
117522	100	199	stimuli/plant2/lemontree/plant_lemontree04.jpg   	1	3	1	plant_lemontree04.jpg	plant2   	7	lemontree 	22	lemontree04 	223	alive    	1	still	0	natural 	1	n	0	0        	 	0.0	0	95.0587020000094	95.1586892000051	0.0999871999956667
117672	100	200	stimuli/nonmovArt/clothespeg/nma_clothespeg09.jpg	1	3	1	nma_clothespeg09.jpg 	nonmovArt	4	clothespeg	8	clothespeg09	88	not_alive	0	still	0	artefact	0	n	0	0        	 	0.0	0	95.2086984000052	95.3086923999945	0.0999939999892376
117822	100	201	stimuli/animals/dolphin/animal_dolphin03.jpg     	1	3	1	animal_dolphin03.jpg 	animals  	0	dolphin   	12	dolphin03   	122	alive    	1	moves	1	natural 	1	n	0	0        	 	0.0	0	95.3587107000058	95.4586969999946	0.0999862999888137
117972	100	202	stimuli/animals/horse/animal_horse02.jpg         	1	3	1	animal_horse02.jpg   	animals  	0	horse     	20	horse02     	201	alive    	1	moves	1	natural 	1	n	0	0        	 	0.0	0	95.5087069000001	95.6087104000035	0.100003500003368
118122	100	203	stimuli/movNat/river/mn_river09.jpg              	1	3	1	mn_river09.jpg       	movNat   	3	river     	29	river09     	298	not_alive	0	moves	1	natural 	1	n	0	0        	 	0.0	0	95.6587206000113	95.7586987999966	0.099978199985344
118272	100	204	stimuli/movArt/train/ma_train03.jpg              	1	3	1	ma_train03.jpg       	movArt   	2	train     	34	train03     	342	not_alive	0	moves	1	artefact	0	n	0	0        	 	0.0	0	95.808715399995	95.9087106999941	0.0999952999991365
118422	100	205	stimuli/nonmovArt/mug/nma_mug04.jpg              	1	3	1	nma_mug04.jpg        	nonmovArt	4	mug       	26	mug04       	263	not_alive	0	still	0	artefact	0	n	0	0        	 	0.0	0	95.958718799986	96.0587207000353	0.100001900049392
118572	100	206	stimuli/animals/dog/animal_dog05.jpg             	1	3	1	animal_dog05.jpg     	animals  	0	dog       	11	dog05       	114	alive    	1	moves	1	natural 	1	n	0	0        	 	0.0	0	96.1087260000058	96.2087170000304	0.0999910000246018
118722	100	207	stimuli/animals/cat/animal_cat06.jpg             	1	3	1	animal_cat06.jpg     	animals  	0	cat       	6	cat06       	65	alive    	1	moves	1	natural 	1	n	0	0        	 	0.0	0	96.2587267000344	96.3587265000096	0.099999799975194
118872	100	208	stimuli/animals/eagle/animal_eagle03.jpg         	1	3	1	animal_eagle03.jpg   	animals  	0	eagle     	13	eagle03     	132	alive    	1	moves	1	natural 	1	n	0	0        	 	0.0	0	96.4087298000231	96.5087441999931	0.10001439996995
119022	100	209	stimuli/animals/eagle/animal_eagle06.jpg         	1	3	1	animal_eagle06.jpg   	animals  	0	eagle     	13	eagle06     	135	alive    	1	moves	1	natural 	1	n	0	0        	 	0.0	0	96.5587440999807	96.6587339999969	0.0999899000162259
119172	100	210	stimuli/animals/cat/animal_cat10.jpg             	1	3	1	animal_cat10.jpg     	animals  	0	cat       	6	cat10       	69	alive    	1	moves	1	natural 	1	n	0	0        	 	0.0	0	96.7087467000238	96.8087412000168	0.0999944999930449
119322	100	211	stimuli/movNat/waves/mn_waves04.jpg              	1	3	1	mn_waves04.jpg       	movNat   	3	waves     	38	waves04     	383	not_alive	0	moves	1	natural 	1	n	0	0        	 	0.0	0	96.8587357000215	96.9587452000123	0.100009499990847
119472	100	212	stimuli/nonmovNat/rock/nmn_rock09.jpg            	1	3	1	nmn_rock09.jpg       	nonmovNat	5	rock      	30	rock09      	308	not_alive	0	still	0	natural 	1	n	0	0        	 	0.0	0	97.0087382000056	97.1087368000299	0.0999986000242643
119622	100	213	stimuli/animals/dolphin/animal_dolphin07.jpg     	1	3	1	animal_dolphin07.jpg 	animals  	0	dolphin   	12	dolphin07   	126	alive    	1	moves	1	natural 	1	n	0	0        	 	0.0	0	97.1587592000141	97.2587597999955	0.100000599981286
119772	100	214	stimuli/nonmovArt/bench/nma_bench02.jpg          	1	3	1	nma_bench02.jpg      	nonmovArt	4	bench     	1	bench02     	11	not_alive	0	still	0	artefact	0	n	0	0        	 	0.0	0	97.3087560000131	97.4087462000316	0.0999902000185102
119922	100	215	stimuli/nonmovArt/headphones/nma_headphones04.jpg	1	3	1	nma_headphones04.jpg 	nonmovArt	4	headphones	18	headphones04	183	not_alive	0	still	0	artefact	0	n	0	0        	 	0.0	0	97.458769000019	97.5587594999815	0.0999904999625869
120072	100	216	stimuli/nonmovArt/lock/nma_lock10.jpg            	1	3	1	nma_lock10.jpg       	nonmovArt	4	lock      	24	lock10      	249	not_alive	0	still	0	artefact	0	n	0	0        	 	0.0	0	97.6087713000015	97.708754900028	0.0999836000264622
120222	100	217	stimuli/plant2/fern/plant_fern10.jpg             	1	3	1	plant_fern10.jpg     	plant2   	7	fern      	14	fern10      	149	alive    	1	still	0	natural 	1	n	0	0        	 	0.0	0	97.7587693000096	97.8587557999999	0.0999864999903366
120372	100	218	stimuli/movArt/car/ma_car09.jpg                  	1	3	1	ma_car09.jpg         	movArt   	2	car       	5	car09       	58	not_alive	0	moves	1	artefact	0	n	0	0        	 	0.0	0	97.9087788999896	98.0087714000256	0.0999925000360236
120522	100	219	stimuli/nonmovArt/lock/nma_lock06.jpg            	1	3	1	nma_lock06.jpg       	nonmovArt	4	lock      	24	lock06      	245	not_alive	0	still	0	artefact	0	n	0	0        	 	0.0	0	98.0587790000136	98.1587593000149	0.0999803000013344
120672	100	220	stimuli/nonmovNat/shell/nmn_shell06.jpg          	1	3	1	nmn_shell06.jpg      	nonmovNat	5	shell     	32	shell06     	325	not_alive	0	still	0	natural 	1	n	0	1        	f	0.0	0	98.2087800999871	98.3087631000089	0.0999830000218935
120822	100	221	stimuli/nonmovArt/lock/nma_lock01.jpg            	1	3	1	nma_lock01.jpg       	nonmovArt	4	lock      	24	lock01      	240	not_alive	0	still	0	artefact	0	n	0	0        	 	0.0	0	98.3588014999987	98.4587848000229	0.0999833000241779
120972	100	222	stimuli/movNat/hotspring/mn_hotspring04.jpg      	1	3	1	mn_hotspring04.jpg   	movNat   	3	hotspring 	21	hotspring04 	213	not_alive	0	moves	1	natural 	1	n	0	0        	 	0.0	0	98.5088092000224	98.6087803000119	0.0999710999894887
121122	100	223	stimuli/movArt/train/ma_train09.jpg              	1	3	1	ma_train09.jpg       	movArt   	2	train     	34	train09     	348	not_alive	0	moves	1	artefact	0	n	0	0        	 	0.0	0	98.6588017999893	98.7587759000016	0.0999741000123322
121272	100	224	stimuli/plant2/moss/plant_moss09.jpg             	1	3	1	plant_moss09.jpg     	plant2   	7	moss      	25	moss09      	258	alive    	1	still	0	natural 	1	n	0	0        	 	0.0	0	98.8087955000228	98.9087864999892	0.0999909999663942
121422	100	225	stimuli/nonmovArt/clothespeg/nma_clothespeg05.jpg	1	3	1	nma_clothespeg05.jpg 	nonmovArt	4	clothespeg	8	clothespeg05	84	not_alive	0	still	0	artefact	0	n	0	0        	 	0.0	0	98.9588002000237	99.0588127000374	0.10001250001369
121572	100	226	stimuli/animals/dolphin/animal_dolphin05.jpg     	1	3	1	animal_dolphin05.jpg 	animals  	0	dolphin   	12	dolphin05   	124	alive    	1	moves	1	natural 	1	n	0	0        	 	0.0	0	99.1088015999994	99.2088038999937	0.10000229999423
121722	100	227	stimuli/animals2/pigeon/animal_pigeon02.jpg      	1	3	1	animal_pigeon02.jpg  	animals2 	1	pigeon    	28	pigeon02    	281	alive    	1	moves	1	natural 	1	n	0	0        	 	0.0	0	99.2588073000079	99.3587915999815	0.0999842999735847
121872	100	228	stimuli/plant/tree/plant_tree10.jpg              	1	3	1	plant_tree10.jpg     	plant    	6	tree      	35	tree10      	359	alive    	1	still	0	natural 	1	n	0	0        	 	0.0	0	99.4088035000022	99.5088110000361	0.100007500033826
122022	100	229	stimuli/animals2/whale/animal_whale03.jpg        	1	3	1	animal_whale03.jpg   	animals2 	1	whale     	39	whale03     	392	alive    	1	moves	1	natural 	1	n	0	0        	 	0.0	0	99.5588398000109	99.658805700019	0.099965900008101
122172	100	230	stimuli/movArt/helicopter/ma_helicopter06.jpg    	1	3	1	ma_helicopter06.jpg  	movArt   	2	helicopter	19	helicopter06	195	not_alive	0	moves	1	artefact	0	n	0	0        	 	0.0	0	99.7088277000003	99.8088201000355	0.0999924000352621
122322	100	231	stimuli/plant/cactus/plant_cactus01.jpg          	1	3	1	plant_cactus01.jpg   	plant    	6	cactus    	4	cactus01    	40	alive    	1	still	0	natural 	1	n	0	0        	 	0.0	0	99.8588196000201	99.9588181999861	0.0999985999660566
122472	100	232	stimuli/movNat/hotspring/mn_hotspring02.jpg      	1	3	1	mn_hotspring02.jpg   	movNat   	3	hotspring 	21	hotspring02 	211	not_alive	0	moves	1	natural 	1	n	0	0        	 	0.0	0	100.008828099992	100.108823499992	0.0999953999998979
122622	100	233	stimuli/nonmovNat/sand/nmn_sand10.jpg            	1	3	1	nmn_sand10.jpg       	nonmovNat	5	sand      	31	sand10      	319	not_alive	0	still	0	natural 	1	n	0	0        	 	0.0	0	100.158848499996	100.258830200008	0.0999817000119947
122772	100	234	stimuli/plant/flower/plant_flower10.jpg          	1	3	1	plant_flower10.jpg   	plant    	6	flower    	16	flower10    	169	alive    	1	still	0	natural 	1	n	0	0        	 	0.0	0	100.308833800023	100.408834300004	0.100000499980524
122922	100	235	stimuli/animals/horse/animal_horse08.jpg         	1	3	1	animal_horse08.jpg   	animals  	0	horse     	20	horse08     	207	alive    	1	moves	1	natural 	1	n	0	0        	 	0.0	0	100.458839000028	100.558831700007	0.0999926999793388
123072	100	236	stimuli/plant/grass/plant_grass08.jpg            	1	3	1	plant_grass08.jpg    	plant    	6	grass     	17	grass08     	177	alive    	1	still	0	natural 	1	n	0	0        	 	0.0	0	100.608834300016	100.708846200025	0.100011900009122
123222	100	237	stimuli/animals2/lemur/animal_lemur09.jpg        	1	3	1	animal_lemur09.jpg   	animals2 	1	lemur     	23	lemur09     	238	alive    	1	moves	1	natural 	1	n	0	0        	 	0.0	0	100.758840100025	100.85885020002	0.100010099995416
123372	100	238	stimuli/movArt/helicopter/ma_helicopter05.jpg    	1	3	1	ma_helicopter05.jpg  	movArt   	2	helicopter	19	helicopter05	194	not_alive	0	moves	1	artefact	0	n	0	0        	 	0.0	0	100.908859600022	101.008851299994	0.0999916999717243
123522	100	239	stimuli/animals2/whale/animal_whale10.jpg        	1	3	1	animal_whale10.jpg   	animals2 	1	whale     	39	whale10     	399	alive    	1	moves	1	natural 	1	n	0	0        	 	0.0	0	101.058853299997	101.1588567	0.100003400002606
129072	100	240	stimuli/nonmovNat/crystal/nmn_crystal09.jpg      	1	4	1	nmn_crystal09.jpg    	nonmovNat	5	crystal   	10	crystal09   	108	not_alive	0	still	0	natural 	1	n	0	0        	 	0.0	0	106.608989000029	106.70900849998	0.100019499950577
129222	100	241	stimuli/plant2/moss/plant_moss01.jpg             	1	4	1	plant_moss01.jpg     	plant2   	7	moss      	25	moss01      	250	alive    	1	still	0	natural 	1	n	0	0        	 	0.0	0	106.758991900017	106.859024000005	0.100032099988312
129372	100	242	stimuli/nonmovArt/clothespeg/nma_clothespeg06.jpg	1	4	1	nma_clothespeg06.jpg 	nonmovArt	4	clothespeg	8	clothespeg06	85	not_alive	0	still	0	artefact	0	n	0	0        	 	0.0	0	106.908997300023	107.008988299989	0.0999909999663942
129522	100	243	stimuli/movArt/train/ma_train08.jpg              	1	4	1	ma_train08.jpg       	movArt   	2	train     	34	train08     	347	not_alive	0	moves	1	artefact	0	n	0	0        	 	0.0	0	107.059022500005	107.158992299985	0.0999697999795899
129672	100	244	stimuli/plant2/clover/plant_clover06.jpg         	1	4	1	plant_clover06.jpg   	plant2   	7	clover    	9	clover06    	95	alive    	1	still	0	natural 	1	n	0	0        	 	0.0	0	107.209001399984	107.308997899992	0.0999965000082739
129822	100	245	stimuli/movNat/waterfall/mn_waterfall08.jpg      	1	4	1	mn_waterfall08.jpg   	movNat   	3	waterfall 	37	waterfall08 	377	not_alive	0	moves	1	natural 	1	n	0	0        	 	0.0	0	107.359008500003	107.459032399987	0.10002389998408
129972	100	246	stimuli/plant/flower/plant_flower05.jpg          	1	4	1	plant_flower05.jpg   	plant    	6	flower    	16	flower05    	164	alive    	1	still	0	natural 	1	n	0	0        	 	0.0	0	107.509010299982	107.60901960003	0.100009300047532
130122	100	247	stimuli/plant/tree/plant_tree07.jpg              	1	4	1	plant_tree07.jpg     	plant    	6	tree      	35	tree07      	356	alive    	1	still	0	natural 	1	n	0	0        	 	0.0	0	107.659026900015	107.759022200014	0.0999952999991365
130272	100	248	stimuli/nonmovArt/headphones/nma_headphones03.jpg	1	4	1	nma_headphones03.jpg 	nonmovArt	4	headphones	18	headphones03	182	not_alive	0	still	0	artefact	0	n	0	0        	 	0.0	0	107.809036699997	107.909028400027	0.099991700029932
130422	100	249	stimuli/movNat/waterfall/mn_waterfall02.jpg      	1	4	1	mn_waterfall02.jpg   	movNat   	3	waterfall 	37	waterfall02 	371	not_alive	0	moves	1	natural 	1	n	0	0        	 	0.0	0	107.959021900024	108.059036699997	0.100014799972996
130572	100	250	stimuli/plant/cactus/plant_cactus02.jpg          	1	4	1	plant_cactus02.jpg   	plant    	6	cactus    	4	cactus02    	41	alive    	1	still	0	natural 	1	n	0	0        	 	0.0	0	108.10903990001	108.209032999992	0.0999930999823846
130722	100	251	stimuli/animals/dog/animal_dog06.jpg             	1	4	1	animal_dog06.jpg     	animals  	0	dog       	11	dog06       	115	alive    	1	moves	1	natural 	1	n	0	0        	 	0.0	0	108.259053300018	108.359045799996	0.0999924999778159
130872	100	252	stimuli/animals/horse/animal_horse06.jpg         	1	4	1	animal_horse06.jpg   	animals  	0	horse     	20	horse06     	205	alive    	1	moves	1	natural 	1	n	0	0        	 	0.0	0	108.409041800012	108.509048599983	0.100006799970288
131022	100	253	stimuli/nonmovArt/mug/nma_mug07.jpg              	1	4	1	nma_mug07.jpg        	nonmovArt	4	mug       	26	mug07       	266	not_alive	0	still	0	artefact	0	n	0	0        	 	0.0	0	108.55906140001	108.659055299999	0.0999938999884762
131172	100	254	stimuli/nonmovArt/lock/nma_lock03.jpg            	1	4	1	nma_lock03.jpg       	nonmovArt	4	lock      	24	lock03      	242	not_alive	0	still	0	artefact	0	n	0	0        	 	0.0	0	108.709051700018	108.809055900027	0.100004200008698
131322	100	255	stimuli/nonmovNat/crystal/nmn_crystal01.jpg      	1	4	1	nmn_crystal01.jpg    	nonmovNat	5	crystal   	10	crystal01   	100	not_alive	0	still	0	natural 	1	n	0	0        	 	0.0	0	108.859060199989	108.95905200002	0.0999918000306934
131472	100	256	stimuli/movArt/boat/ma_boat10.jpg                	1	4	1	ma_boat10.jpg        	movArt   	2	boat      	2	boat10      	29	not_alive	0	moves	1	artefact	0	n	0	0        	 	0.0	0	109.009072899993	109.109066999983	0.0999940999899991
131622	100	257	stimuli/animals2/lemur/animal_lemur07.jpg        	1	4	1	animal_lemur07.jpg   	animals2 	1	lemur     	23	lemur07     	236	alive    	1	moves	1	natural 	1	n	0	0        	 	0.0	0	109.159075999982	109.259068000014	0.0999920000322163
131772	100	258	stimuli/plant/grass/plant_grass07.jpg            	1	4	1	plant_grass07.jpg    	plant    	6	grass     	17	grass07     	176	alive    	1	still	0	natural 	1	n	0	0        	 	0.0	0	109.309067599999	109.409074600029	0.100007000030018
131922	100	259	stimuli/plant/tree/plant_tree03.jpg              	1	4	1	plant_tree03.jpg     	plant    	6	tree      	35	tree03      	352	alive    	1	still	0	natural 	1	n	0	0        	 	0.0	0	109.459096800012	109.559060500003	0.0999636999913491
132072	100	260	stimuli/nonmovNat/crystal/nmn_crystal04.jpg      	1	4	1	nmn_crystal04.jpg    	nonmovNat	5	crystal   	10	crystal04   	103	not_alive	0	still	0	natural 	1	n	0	0        	 	0.0	0	109.609077200003	109.70906590001	0.0999887000070885
132222	100	261	stimuli/movArt/train/ma_train02.jpg              	1	4	1	ma_train02.jpg       	movArt   	2	train     	34	train02     	341	not_alive	0	moves	1	artefact	0	n	0	0        	 	0.0	0	109.759103799996	109.859090699989	0.0999868999933824
132372	100	262	stimuli/nonmovNat/rock/nmn_rock01.jpg            	1	4	1	nmn_rock01.jpg       	nonmovNat	5	rock      	30	rock01      	300	not_alive	0	still	0	natural 	1	n	1	0        	 	0.0	0	109.909083100036	110.009081800003	0.0999986999668181
132522	100	263	stimuli/movArt/boat/ma_boat10.jpg                	1	4	1	ma_boat10.jpg        	movArt   	2	boat      	2	boat10      	29	not_alive	0	moves	1	artefact	0	n	1	0        	 	0.0	0	110.059087300033	110.159094000002	0.100006699969526
132672	100	264	stimuli/movNat/hotspring/mn_hotspring03.jpg      	1	4	1	mn_hotspring03.jpg   	movNat   	3	hotspring 	21	hotspring03 	212	not_alive	0	moves	1	natural 	1	n	0	1        	f	0.241993699979503	1	110.20908489998	110.309096499986	0.100011600006837
132822	100	265	stimuli/nonmovArt/headphones/nma_headphones06.jpg	1	4	1	nma_headphones06.jpg 	nonmovArt	4	headphones	18	headphones06	185	not_alive	0	still	0	artefact	0	n	0	0        	 	0.0	0	110.359099900001	110.459104700014	0.100004800013267
132972	100	266	stimuli/movArt/helicopter/ma_helicopter06.jpg    	1	4	1	ma_helicopter06.jpg  	movArt   	2	helicopter	19	helicopter06	195	not_alive	0	moves	1	artefact	0	n	0	0        	 	0.0	0	110.509110999992	110.609088200028	0.0999772000359371
133122	100	267	stimuli/nonmovNat/sand/nmn_sand06.jpg            	1	4	1	nmn_sand06.jpg       	nonmovNat	5	sand      	31	sand06      	315	not_alive	0	still	0	natural 	1	n	0	0        	 	0.0	0	110.659115499991	110.759108200029	0.0999927000375465
133272	100	268	stimuli/movNat/fire/mn_fire05.jpg                	1	4	1	mn_fire05.jpg        	movNat   	3	fire      	15	fire05      	154	not_alive	0	moves	1	natural 	1	n	0	0        	 	0.0	0	110.809110800037	110.909097800031	0.0999869999941438
133422	100	269	stimuli/movArt/car/ma_car07.jpg                  	1	4	1	ma_car07.jpg         	movArt   	2	car       	5	car07       	56	not_alive	0	moves	1	artefact	0	n	0	0        	 	0.0	0	110.959128700022	111.059116600023	0.0999879000009969
133572	100	270	stimuli/animals2/pigeon/animal_pigeon01.jpg      	1	4	1	animal_pigeon01.jpg  	animals2 	1	pigeon    	28	pigeon01    	280	alive    	1	moves	1	natural 	1	n	0	0        	 	0.0	0	111.109127999982	111.209123699984	0.0999957000021823
133722	100	271	stimuli/plant2/clover/plant_clover02.jpg         	1	4	1	plant_clover02.jpg   	plant2   	7	clover    	9	clover02    	91	alive    	1	still	0	natural 	1	n	0	0        	 	0.0	0	111.259140399983	111.359125900024	0.0999855000409298
133872	100	272	stimuli/movNat/waves/mn_waves09.jpg              	1	4	1	mn_waves09.jpg       	movNat   	3	waves     	38	waves09     	388	not_alive	0	moves	1	natural 	1	n	0	0        	 	0.0	0	111.409137799987	111.509115400026	0.0999776000389829
134022	100	273	stimuli/movNat/fire/mn_fire07.jpg                	1	4	1	mn_fire07.jpg        	movNat   	3	fire      	15	fire07      	156	not_alive	0	moves	1	natural 	1	n	0	0        	 	0.0	0	111.559138500015	111.659132800007	0.099994299991522
134172	100	274	stimuli/animals/eagle/animal_eagle03.jpg         	1	4	1	animal_eagle03.jpg   	animals  	0	eagle     	13	eagle03     	132	alive    	1	moves	1	natural 	1	n	1	0        	 	0.0	0	111.709144100023	111.809125900036	0.0999818000127561
134322	100	275	stimuli/plant2/clover/plant_clover01.jpg         	1	4	1	plant_clover01.jpg   	plant2   	7	clover    	9	clover01    	90	alive    	1	still	0	natural 	1	n	0	0        	 	0.0	0	111.859146200004	111.959125199995	0.0999789999914356
134472	100	276	stimuli/animals/dog/animal_dog02.jpg             	1	4	1	animal_dog02.jpg     	animals  	0	dog       	11	dog02       	111	alive    	1	moves	1	natural 	1	n	0	1        	f	0.292229699960444	1	112.009130700026	112.109123800008	0.0999930999823846
134622	100	277	stimuli/plant2/palmtree/plant_palmtree01.jpg     	1	4	1	plant_palmtree01.jpg 	plant2   	7	palmtree  	27	palmtree01  	270	alive    	1	still	0	natural 	1	n	0	0        	 	0.0	0	112.159134000016	112.25913999998	0.100005999964196
134772	100	278	stimuli/animals2/whale/animal_whale01.jpg        	1	4	1	animal_whale01.jpg   	animals2 	1	whale     	39	whale01     	390	alive    	1	moves	1	natural 	1	n	0	0        	 	0.0	0	112.309173499991	112.409159500035	0.099986000044737
134922	100	279	stimuli/movArt/car/ma_car07.jpg                  	1	4	1	ma_car07.jpg         	movArt   	2	car       	5	car07       	56	not_alive	0	moves	1	artefact	0	n	0	0        	 	0.0	0	112.459156600002	112.559153000009	0.0999964000075124
135072	100	280	stimuli/nonmovNat/shell/nmn_shell08.jpg          	1	4	1	nmn_shell08.jpg      	nonmovNat	5	shell     	32	shell08     	327	not_alive	0	still	0	natural 	1	n	0	0        	 	0.0	0	112.609159199987	112.709150400013	0.0999912000261247
135222	100	281	stimuli/nonmovArt/lock/nma_lock08.jpg            	1	4	1	nma_lock08.jpg       	nonmovArt	4	lock      	24	lock08      	247	not_alive	0	still	0	artefact	0	n	0	0        	 	0.0	0	112.759166100004	112.85915590002	0.0999898000154644
135372	100	282	stimuli/plant/tree/plant_tree08.jpg              	1	4	1	plant_tree08.jpg     	plant    	6	tree      	35	tree08      	357	alive    	1	still	0	natural 	1	n	0	0        	 	0.0	0	112.909164600016	113.009161500027	0.0999969000113197
135522	100	283	stimuli/nonmovNat/rock/nmn_rock10.jpg            	1	4	1	nmn_rock10.jpg       	nonmovNat	5	rock      	30	rock10      	309	not_alive	0	still	0	natural 	1	n	0	0        	 	0.0	0	113.05917979998	113.159178500006	0.0999987000250258
135672	100	284	stimuli/plant/vine/plant_vine10.jpg              	1	4	1	plant_vine10.jpg     	plant    	6	vine      	36	vine10      	369	alive    	1	still	0	natural 	1	n	0	0        	 	0.0	0	113.209183100029	113.309174299997	0.099991199967917
135822	100	285	stimuli/animals2/tiger/animal_tiger02.jpg        	1	4	1	animal_tiger02.jpg   	animals2 	1	tiger     	33	tiger02     	331	alive    	1	moves	1	natural 	1	n	0	0        	 	0.0	0	113.359185500012	113.459182400024	0.0999969000113197
135972	100	286	stimuli/plant2/fern/plant_fern04.jpg             	1	4	1	plant_fern04.jpg     	plant2   	7	fern      	14	fern04      	143	alive    	1	still	0	natural 	1	n	0	0        	 	0.0	0	113.509171399986	113.609184900008	0.100013500021305
136122	100	287	stimuli/nonmovNat/shell/nmn_shell07.jpg          	1	4	1	nmn_shell07.jpg      	nonmovNat	5	shell     	32	shell07     	326	not_alive	0	still	0	natural 	1	n	0	0        	 	0.0	0	113.659190300037	113.759175700019	0.0999853999819606
136272	100	288	stimuli/plant/grass/plant_grass01.jpg            	1	4	1	plant_grass01.jpg    	plant    	6	grass     	17	grass01     	170	alive    	1	still	0	natural 	1	n	0	0        	 	0.0	0	113.809204599995	113.909221999988	0.100017399992794
136422	100	289	stimuli/nonmovArt/clothespeg/nma_clothespeg10.jpg	1	4	1	nma_clothespeg10.jpg 	nonmovArt	4	clothespeg	8	clothespeg10	89	not_alive	0	still	0	artefact	0	n	0	0        	 	0.0	0	113.959204100014	114.059179500036	0.099975400022231
136572	100	290	stimuli/animals/cat/animal_cat07.jpg             	1	4	1	animal_cat07.jpg     	animals  	0	cat       	6	cat07       	66	alive    	1	moves	1	natural 	1	n	0	0        	 	0.0	0	114.10920950002	114.209198600031	0.0999891000101343
136722	100	291	stimuli/plant/flower/plant_flower05.jpg          	1	4	1	plant_flower05.jpg   	plant    	6	flower    	16	flower05    	164	alive    	1	still	0	natural 	1	n	0	0        	 	0.0	0	114.259213500016	114.359188999981	0.0999754999647848
136872	100	292	stimuli/nonmovArt/headphones/nma_headphones01.jpg	1	4	1	nma_headphones01.jpg 	nonmovArt	4	headphones	18	headphones01	180	not_alive	0	still	0	artefact	0	n	0	0        	 	0.0	0	114.409213699982	114.509190700017	0.0999770000344142
137022	100	293	stimuli/animals/horse/animal_horse01.jpg         	1	4	1	animal_horse01.jpg   	animals  	0	horse     	20	horse01     	200	alive    	1	moves	1	natural 	1	n	0	0        	 	0.0	0	114.559202400036	114.659212600032	0.100010199996177
137172	100	294	stimuli/nonmovNat/cliff/nmn_cliff02.jpg          	1	4	1	nmn_cliff02.jpg      	nonmovNat	5	cliff     	7	cliff02     	71	not_alive	0	still	0	natural 	1	n	0	0        	 	0.0	0	114.70923410001	114.809223400021	0.0999893000116572
137322	100	295	stimuli/plant2/lemontree/plant_lemontree07.jpg   	1	4	1	plant_lemontree07.jpg	plant2   	7	lemontree 	22	lemontree07 	226	alive    	1	still	0	natural 	1	n	0	0        	 	0.0	0	114.859217400022	114.959220900026	0.100003500003368
137472	100	296	stimuli/movNat/hotspring/mn_hotspring02.jpg      	1	4	1	mn_hotspring02.jpg   	movNat   	3	hotspring 	21	hotspring02 	211	not_alive	0	moves	1	natural 	1	n	0	0        	 	0.0	0	115.009245400026	115.1092068	0.0999613999738358
137622	100	297	stimuli/nonmovNat/shell/nmn_shell09.jpg          	1	4	1	nmn_shell09.jpg      	nonmovNat	5	shell     	32	shell09     	328	not_alive	0	still	0	natural 	1	n	0	0        	 	0.0	0	115.159217700013	115.259228100011	0.1000103999977
137772	100	298	stimuli/animals/cat/animal_cat05.jpg             	1	4	1	animal_cat05.jpg     	animals  	0	cat       	6	cat05       	64	alive    	1	moves	1	natural 	1	n	0	0        	 	0.0	0	115.309239200025	115.409224000003	0.099984799977392
137922	100	299	stimuli/animals2/bee/animal_bee01.jpg            	1	4	1	animal_bee01.jpg     	animals2 	1	bee       	0	bee01       	0	alive    	1	moves	1	natural 	1	n	0	0        	 	0.0	0	115.45924180001	115.559234699991	0.0999928999808617
138072	100	300	stimuli/animals/dolphin/animal_dolphin04.jpg     	1	4	1	animal_dolphin04.jpg 	animals  	0	dolphin   	12	dolphin04   	123	alive    	1	moves	1	natural 	1	n	0	0        	 	0.0	0	115.609231600014	115.709240700002	0.100009099987801
138222	100	301	stimuli/animals2/pigeon/animal_pigeon05.jpg      	1	4	1	animal_pigeon05.jpg  	animals2 	1	pigeon    	28	pigeon05    	284	alive    	1	moves	1	natural 	1	n	0	0        	 	0.0	0	115.75926989998	115.859243799991	0.0999739000108093
138372	100	302	stimuli/movArt/bus/ma_bus01.jpg                  	1	4	1	ma_bus01.jpg         	movArt   	2	bus       	3	bus01       	30	not_alive	0	moves	1	artefact	0	n	0	0        	 	0.0	0	115.909238099994	116.009245800029	0.100007700035349
138522	100	303	stimuli/movArt/boat/ma_boat02.jpg                	1	4	1	ma_boat02.jpg        	movArt   	2	boat      	2	boat02      	21	not_alive	0	moves	1	artefact	0	n	0	0        	 	0.0	0	116.059259100002	116.159240600013	0.0999815000104718
138672	100	304	stimuli/movNat/river/mn_river09.jpg              	1	4	1	mn_river09.jpg       	movNat   	3	river     	29	river09     	298	not_alive	0	moves	1	natural 	1	n	0	0        	 	0.0	0	116.209246499988	116.309250599996	0.100004100007936
138822	100	305	stimuli/movArt/car/ma_car04.jpg                  	1	4	1	ma_car04.jpg         	movArt   	2	car       	5	car04       	53	not_alive	0	moves	1	artefact	0	n	0	0        	 	0.0	0	116.359249500034	116.459257600014	0.100008099980187
138972	100	306	stimuli/nonmovArt/lock/nma_lock01.jpg            	1	4	1	nma_lock01.jpg       	nonmovArt	4	lock      	24	lock01      	240	not_alive	0	still	0	artefact	0	n	0	0        	 	0.0	0	116.509277499979	116.609247900022	0.0999704000423662
139122	100	307	stimuli/plant2/fern/plant_fern09.jpg             	1	4	1	plant_fern09.jpg     	plant2   	7	fern      	14	fern09      	148	alive    	1	still	0	natural 	1	n	0	0        	 	0.0	0	116.659274100035	116.759266400011	0.099992299976293
139272	100	308	stimuli/nonmovNat/cliff/nmn_cliff10.jpg          	1	4	1	nmn_cliff10.jpg      	nonmovNat	5	cliff     	7	cliff10     	79	not_alive	0	still	0	natural 	1	n	1	0        	 	0.0	0	116.809277800028	116.909254800004	0.0999769999762066
139422	100	309	stimuli/nonmovArt/bench/nma_bench06.jpg          	1	4	1	nma_bench06.jpg      	nonmovArt	4	bench     	1	bench06     	15	not_alive	0	still	0	artefact	0	n	0	0        	 	0.0	0	116.959285399993	117.059275000007	0.0999896000139415
139572	100	310	stimuli/animals2/pigeon/animal_pigeon01.jpg      	1	4	1	animal_pigeon01.jpg  	animals2 	1	pigeon    	28	pigeon01    	280	alive    	1	moves	1	natural 	1	n	0	1        	f	0.391999699990265	1	117.109269700013	117.209267900034	0.0999982000212185
139722	100	311	stimuli/animals2/lemur/animal_lemur08.jpg        	1	4	1	animal_lemur08.jpg   	animals2 	1	lemur     	23	lemur08     	237	alive    	1	moves	1	natural 	1	n	0	0        	 	0.0	0	117.25928920001	117.35929350002	0.100004300009459
139872	100	312	stimuli/animals/horse/animal_horse08.jpg         	1	4	1	animal_horse08.jpg   	animals  	0	horse     	20	horse08     	207	alive    	1	moves	1	natural 	1	n	0	0        	 	0.0	0	117.409295700025	117.509287199995	0.0999914999702014
140022	100	313	stimuli/movNat/waves/mn_waves01.jpg              	1	4	1	mn_waves01.jpg       	movNat   	3	waves     	38	waves01     	380	not_alive	0	moves	1	natural 	1	n	0	0        	 	0.0	0	117.559298200009	117.659291499993	0.0999932999839075
140172	100	314	stimuli/animals2/bee/animal_bee04.jpg            	1	4	1	animal_bee04.jpg     	animals2 	1	bee       	0	bee04       	3	alive    	1	moves	1	natural 	1	n	0	0        	 	0.0	0	117.709304700023	117.809296299994	0.0999915999709628
140323	100	315	stimuli/nonmovNat/sand/nmn_sand09.jpg            	1	4	1	nmn_sand09.jpg       	nonmovNat	5	sand      	31	sand09      	318	not_alive	0	still	0	natural 	1	n	0	0        	 	0.0	0	117.859308400017	117.959308199992	0.099999799975194
140472	100	316	stimuli/movArt/bus/ma_bus03.jpg                  	1	4	1	ma_bus03.jpg         	movArt   	2	bus       	3	bus03       	32	not_alive	0	moves	1	artefact	0	n	0	0        	 	0.0	0	118.00929419999	118.10930250003	0.100008300039917
140623	100	317	stimuli/animals/dolphin/animal_dolphin01.jpg     	1	4	1	animal_dolphin01.jpg 	animals  	0	dolphin   	12	dolphin01   	120	alive    	1	moves	1	natural 	1	n	0	0        	 	0.0	0	118.159304700035	118.259330600034	0.100025899999309
140773	100	318	stimuli/nonmovArt/mug/nma_mug01.jpg              	1	4	1	nma_mug01.jpg        	nonmovArt	4	mug       	26	mug01       	260	not_alive	0	still	0	artefact	0	n	0	0        	 	0.0	0	118.309305100003	118.409313499986	0.100008399982471
140923	100	319	stimuli/animals2/whale/animal_whale05.jpg        	1	4	1	animal_whale05.jpg   	animals2 	1	whale     	39	whale05     	394	alive    	1	moves	1	natural 	1	n	0	0        	 	0.0	0	118.459323099989	118.559314200014	0.0999911000253633
146956	100	320	stimuli/animals2/bee/animal_bee03.jpg            	1	5	1	animal_bee03.jpg     	animals2 	1	bee       	0	bee03       	2	alive    	1	moves	1	natural 	1	n	0	0        	 	0.0	0	124.492795900034	124.59278549999	0.0999895999557339
147106	100	321	stimuli/plant2/moss/plant_moss04.jpg             	1	5	1	plant_moss04.jpg     	plant2   	7	moss      	25	moss04      	253	alive    	1	still	0	natural 	1	n	0	0        	 	0.0	0	124.642798900022	124.742787800031	0.0999889000086114
147256	100	322	stimuli/movArt/helicopter/ma_helicopter05.jpg    	1	5	1	ma_helicopter05.jpg  	movArt   	2	helicopter	19	helicopter05	194	not_alive	0	moves	1	artefact	0	n	0	0        	 	0.0	0	124.792799999996	124.892807700031	0.100007700035349
147406	100	323	stimuli/animals2/lemur/animal_lemur09.jpg        	1	5	1	animal_lemur09.jpg   	animals2 	1	lemur     	23	lemur09     	238	alive    	1	moves	1	natural 	1	n	0	0        	 	0.0	0	124.942806900013	125.042799499992	0.0999925999785774
147556	100	324	stimuli/animals/dog/animal_dog09.jpg             	1	5	1	animal_dog09.jpg     	animals  	0	dog       	11	dog09       	118	alive    	1	moves	1	natural 	1	n	0	0        	 	0.0	0	125.09280849999	125.192801800033	0.0999933000421152
147706	100	325	stimuli/plant2/lemontree/plant_lemontree09.jpg   	1	5	1	plant_lemontree09.jpg	plant2   	7	lemontree 	22	lemontree09 	228	alive    	1	still	0	natural 	1	n	0	0        	 	0.0	0	125.242815500009	125.342807299981	0.0999917999724858
147856	100	326	stimuli/movNat/waves/mn_waves02.jpg              	1	5	1	mn_waves02.jpg       	movNat   	3	waves     	38	waves02     	381	not_alive	0	moves	1	natural 	1	n	0	0        	 	0.0	0	125.392816699983	125.492811600037	0.0999949000542983
148006	100	327	stimuli/nonmovArt/clothespeg/nma_clothespeg09.jpg	1	5	1	nma_clothespeg09.jpg 	nonmovArt	4	clothespeg	8	clothespeg09	88	not_alive	0	still	0	artefact	0	n	0	0        	 	0.0	0	125.542833000014	125.642814500025	0.0999815000104718
148156	100	328	stimuli/animals/cat/animal_cat05.jpg             	1	5	1	animal_cat05.jpg     	animals  	0	cat       	6	cat05       	64	alive    	1	moves	1	natural 	1	n	0	0        	 	0.0	0	125.69282440003	125.792819900031	0.0999955000006594
148306	100	329	stimuli/movNat/river/mn_river09.jpg              	1	5	1	mn_river09.jpg       	movNat   	3	river     	29	river09     	298	not_alive	0	moves	1	natural 	1	n	0	0        	 	0.0	0	125.84284290002	125.942830200016	0.0999872999964282
148456	100	330	stimuli/movArt/helicopter/ma_helicopter04.jpg    	1	5	1	ma_helicopter04.jpg  	movArt   	2	helicopter	19	helicopter04	193	not_alive	0	moves	1	artefact	0	n	0	0        	 	0.0	0	125.992843499989	126.09282239998	0.0999788999906741
148606	100	331	stimuli/animals2/whale/animal_whale03.jpg        	1	5	1	animal_whale03.jpg   	animals2 	1	whale     	39	whale03     	392	alive    	1	moves	1	natural 	1	n	0	0        	 	0.0	0	126.142834800005	126.242828899994	0.0999940999899991
148756	100	332	stimuli/movNat/river/mn_river01.jpg              	1	5	1	mn_river01.jpg       	movNat   	3	river     	29	river01     	290	not_alive	0	moves	1	natural 	1	n	0	0        	 	0.0	0	126.2928388	126.392834600003	0.0999958000029437
148906	100	333	stimuli/plant2/fern/plant_fern02.jpg             	1	5	1	plant_fern02.jpg     	plant2   	7	fern      	14	fern02      	141	alive    	1	still	0	natural 	1	n	0	0        	 	0.0	0	126.442845500016	126.542838499998	0.0999929999816231
149056	100	334	stimuli/movArt/train/ma_train10.jpg              	1	5	1	ma_train10.jpg       	movArt   	2	train     	34	train10     	349	not_alive	0	moves	1	artefact	0	n	0	0        	 	0.0	0	126.592848100001	126.69284209999	0.0999939999892376
149206	100	335	stimuli/nonmovNat/rock/nmn_rock10.jpg            	1	5	1	nmn_rock10.jpg       	nonmovNat	5	rock      	30	rock10      	309	not_alive	0	still	0	natural 	1	n	0	0        	 	0.0	0	126.742853400006	126.842846799991	0.0999933999846689
149356	100	336	stimuli/nonmovArt/bench/nma_bench08.jpg          	1	5	1	nma_bench08.jpg      	nonmovArt	4	bench     	1	bench08     	17	not_alive	0	still	0	artefact	0	n	0	0        	 	0.0	0	126.892871499993	126.992849800037	0.0999783000443131
149506	100	337	stimuli/animals/eagle/animal_eagle10.jpg         	1	5	1	animal_eagle10.jpg   	animals  	0	eagle     	13	eagle10     	139	alive    	1	moves	1	natural 	1	n	0	0        	 	0.0	0	127.042871000012	127.142855099984	0.0999840999720618
149656	100	338	stimuli/plant/vine/plant_vine05.jpg              	1	5	1	plant_vine05.jpg     	plant    	6	vine      	36	vine05      	364	alive    	1	still	0	natural 	1	n	0	0        	 	0.0	0	127.192864799988	127.292860099988	0.0999952999991365
149806	100	339	stimuli/movNat/fire/mn_fire01.jpg                	1	5	1	mn_fire01.jpg        	movNat   	3	fire      	15	fire01      	150	not_alive	0	moves	1	natural 	1	n	0	0        	 	0.0	0	127.342869899992	127.442862400028	0.0999925000360236
149956	100	340	stimuli/animals2/tiger/animal_tiger02.jpg        	1	5	1	animal_tiger02.jpg   	animals2 	1	tiger     	33	tiger02     	331	alive    	1	moves	1	natural 	1	n	0	0        	 	0.0	0	127.49287419999	127.592868899985	0.0999946999945678
150106	100	341	stimuli/nonmovNat/cliff/nmn_cliff01.jpg          	1	5	1	nmn_cliff01.jpg      	nonmovNat	5	cliff     	7	cliff01     	70	not_alive	0	still	0	natural 	1	n	0	0        	 	0.0	0	127.642877699982	127.742870400019	0.0999927000375465
150256	100	342	stimuli/plant/vine/plant_vine09.jpg              	1	5	1	plant_vine09.jpg     	plant    	6	vine      	36	vine09      	368	alive    	1	still	0	natural 	1	n	0	0        	 	0.0	0	127.79287960002	127.89288509998	0.100005499960389
150406	100	343	stimuli/movNat/waterfall/mn_waterfall03.jpg      	1	5	1	mn_waterfall03.jpg   	movNat   	3	waterfall 	37	waterfall03 	372	not_alive	0	moves	1	natural 	1	n	0	0        	 	0.0	0	127.94288560003	128.04288100003	0.0999953999998979
150556	100	344	stimuli/plant/cactus/plant_cactus02.jpg          	1	5	1	plant_cactus02.jpg   	plant    	6	cactus    	4	cactus02    	41	alive    	1	still	0	natural 	1	n	0	0        	 	0.0	0	128.09288880002	128.192881299998	0.0999924999778159
150706	100	345	stimuli/plant2/lemontree/plant_lemontree04.jpg   	1	5	1	plant_lemontree04.jpg	plant2   	7	lemontree 	22	lemontree04 	223	alive    	1	still	0	natural 	1	n	0	0        	 	0.0	0	128.24289210001	128.3428862	0.0999940999899991
150856	100	346	stimuli/plant/cactus/plant_cactus03.jpg          	1	5	1	plant_cactus03.jpg   	plant    	6	cactus    	4	cactus03    	42	alive    	1	still	0	natural 	1	n	0	0        	 	0.0	0	128.392896600009	128.492889599991	0.0999929999816231
151006	100	347	stimuli/nonmovArt/mug/nma_mug07.jpg              	1	5	1	nma_mug07.jpg        	nonmovArt	4	mug       	26	mug07       	266	not_alive	0	still	0	artefact	0	n	0	0        	 	0.0	0	128.542899299995	128.642894999997	0.0999957000021823
151156	100	348	stimuli/movNat/hotspring/mn_hotspring05.jpg      	1	5	1	mn_hotspring05.jpg   	movNat   	3	hotspring 	21	hotspring05 	214	not_alive	0	moves	1	natural 	1	n	1	0        	 	0.0	0	128.692903799994	128.792899399996	0.0999956000014208
151306	100	349	stimuli/movArt/bus/ma_bus05.jpg                  	1	5	1	ma_bus05.jpg         	movArt   	2	bus       	3	bus05       	34	not_alive	0	moves	1	artefact	0	n	0	0        	 	0.0	0	128.842909200001	128.942894999986	0.0999857999850064
151456	100	350	stimuli/plant2/palmtree/plant_palmtree07.jpg     	1	5	1	plant_palmtree07.jpg 	plant2   	7	palmtree  	27	palmtree07  	276	alive    	1	still	0	natural 	1	n	0	1        	f	0.292182900011539	1	128.992905799998	129.092921200034	0.100015400035772
151606	100	351	stimuli/plant2/moss/plant_moss08.jpg             	1	5	1	plant_moss08.jpg     	plant2   	7	moss      	25	moss08      	257	alive    	1	still	0	natural 	1	n	0	0        	 	0.0	0	129.142909999995	129.242904399987	0.0999943999922834
151756	100	352	stimuli/animals/dolphin/animal_dolphin02.jpg     	1	5	1	animal_dolphin02.jpg 	animals  	0	dolphin   	12	dolphin02   	121	alive    	1	moves	1	natural 	1	n	0	0        	 	0.0	0	129.292913399986	129.392906600027	0.0999932000413537
151906	100	353	stimuli/nonmovArt/bench/nma_bench01.jpg          	1	5	1	nma_bench01.jpg      	nonmovArt	4	bench     	1	bench01     	10	not_alive	0	still	0	artefact	0	n	0	0        	 	0.0	0	129.442917999986	129.542911300028	0.0999933000421152
152056	100	354	stimuli/animals2/tiger/animal_tiger01.jpg        	1	5	1	animal_tiger01.jpg   	animals2 	1	tiger     	33	tiger01     	330	alive    	1	moves	1	natural 	1	n	0	0        	 	0.0	0	129.592921899981	129.692933399987	0.100011500006076
152206	100	355	stimuli/nonmovNat/sand/nmn_sand08.jpg            	1	5	1	nmn_sand08.jpg       	nonmovNat	5	sand      	31	sand08      	317	not_alive	0	still	0	natural 	1	n	0	0        	 	0.0	0	129.742930400011	129.842918200011	0.0999878000002354
152356	100	356	stimuli/plant/grass/plant_grass02.jpg            	1	5	1	plant_grass02.jpg    	plant    	6	grass     	17	grass02     	171	alive    	1	still	0	natural 	1	n	0	0        	 	0.0	0	129.892961200036	129.992921800003	0.0999605999677442
152506	100	357	stimuli/plant/flower/plant_flower06.jpg          	1	5	1	plant_flower06.jpg   	plant    	6	flower    	16	flower06    	165	alive    	1	still	0	natural 	1	n	0	0        	 	0.0	0	130.042935400037	130.142928400019	0.0999929999816231
152656	100	358	stimuli/plant2/palmtree/plant_palmtree06.jpg     	1	5	1	plant_palmtree06.jpg 	plant2   	7	palmtree  	27	palmtree06  	275	alive    	1	still	0	natural 	1	n	0	0        	 	0.0	0	130.192936800013	130.292933400022	0.0999966000090353
152806	100	359	stimuli/animals/eagle/animal_eagle02.jpg         	1	5	1	animal_eagle02.jpg   	animals  	0	eagle     	13	eagle02     	131	alive    	1	moves	1	natural 	1	n	0	0        	 	0.0	0	130.342942000018	130.44293379999	0.0999917999724858
152956	100	360	stimuli/nonmovNat/rock/nmn_rock08.jpg            	1	5	1	nmn_rock08.jpg       	nonmovNat	5	rock      	30	rock08      	307	not_alive	0	still	0	natural 	1	n	0	0        	 	0.0	0	130.492944700003	130.592941200011	0.0999965000082739
153106	100	361	stimuli/movArt/bus/ma_bus08.jpg                  	1	5	1	ma_bus08.jpg         	movArt   	2	bus       	3	bus08       	37	not_alive	0	moves	1	artefact	0	n	0	0        	 	0.0	0	130.642969399982	130.742943099991	0.0999737000092864
153256	100	362	stimuli/animals2/lemur/animal_lemur10.jpg        	1	5	1	animal_lemur10.jpg   	animals2 	1	lemur     	23	lemur10     	239	alive    	1	moves	1	natural 	1	n	0	0        	 	0.0	0	130.792952699994	130.892965700012	0.100013000017498
153406	100	363	stimuli/animals2/whale/animal_whale05.jpg        	1	5	1	animal_whale05.jpg   	animals2 	1	whale     	39	whale05     	394	alive    	1	moves	1	natural 	1	n	0	0        	 	0.0	0	130.942957599997	131.042951699987	0.0999940999899991
153556	100	364	stimuli/movArt/bus/ma_bus07.jpg                  	1	5	1	ma_bus07.jpg         	movArt   	2	bus       	3	bus07       	36	not_alive	0	moves	1	artefact	0	n	0	0        	 	0.0	0	131.092961799994	131.192953500024	0.099991700029932
153706	100	365	stimuli/plant/grass/plant_grass02.jpg            	1	5	1	plant_grass02.jpg    	plant    	6	grass     	17	grass02     	171	alive    	1	still	0	natural 	1	n	0	0        	 	0.0	0	131.242967700004	131.342958000023	0.0999903000192717
153856	100	366	stimuli/nonmovNat/cliff/nmn_cliff01.jpg          	1	5	1	nmn_cliff01.jpg      	nonmovNat	5	cliff     	7	cliff01     	70	not_alive	0	still	0	natural 	1	n	0	0        	 	0.0	0	131.392969099979	131.492979999981	0.100010900001507
154006	100	367	stimuli/animals2/whale/animal_whale01.jpg        	1	5	1	animal_whale01.jpg   	animals2 	1	whale     	39	whale01     	390	alive    	1	moves	1	natural 	1	n	0	0        	 	0.0	0	131.542974699987	131.642983600032	0.100008900044486
154156	100	368	stimuli/animals2/bee/animal_bee05.jpg            	1	5	1	animal_bee05.jpg     	animals2 	1	bee       	0	bee05       	4	alive    	1	moves	1	natural 	1	n	0	0        	 	0.0	0	131.692979299987	131.792971800023	0.0999925000360236
154306	100	369	stimuli/nonmovNat/rock/nmn_rock04.jpg            	1	5	1	nmn_rock04.jpg       	nonmovNat	5	rock      	30	rock04      	303	not_alive	0	still	0	natural 	1	n	0	0        	 	0.0	0	131.84298180003	131.942976600025	0.0999947999953292
154456	100	370	stimuli/animals2/tiger/animal_tiger09.jpg        	1	5	1	animal_tiger09.jpg   	animals2 	1	tiger     	33	tiger09     	338	alive    	1	moves	1	natural 	1	n	0	0        	 	0.0	0	131.99298650003	132.092979400011	0.0999928999808617
154606	100	371	stimuli/movArt/train/ma_train07.jpg              	1	5	1	ma_train07.jpg       	movArt   	2	train     	34	train07     	346	not_alive	0	moves	1	artefact	0	n	0	0        	 	0.0	0	132.142989900021	132.242984700017	0.0999947999953292
154756	100	372	stimuli/plant2/lemontree/plant_lemontree05.jpg   	1	5	1	plant_lemontree05.jpg	plant2   	7	lemontree 	22	lemontree05 	224	alive    	1	still	0	natural 	1	n	0	0        	 	0.0	0	132.292994700023	132.392987600004	0.0999928999808617
154906	100	373	stimuli/plant/tree/plant_tree09.jpg              	1	5	1	plant_tree09.jpg     	plant    	6	tree      	35	tree09      	358	alive    	1	still	0	natural 	1	n	0	0        	 	0.0	0	132.443013000011	132.542990899994	0.0999778999830596
155056	100	374	stimuli/animals2/bee/animal_bee01.jpg            	1	5	1	animal_bee01.jpg     	animals2 	1	bee       	0	bee01       	0	alive    	1	moves	1	natural 	1	n	0	0        	 	0.0	0	132.593001600006	132.692994499987	0.0999928999808617
155206	100	375	stimuli/animals/cat/animal_cat08.jpg             	1	5	1	animal_cat08.jpg     	animals  	0	cat       	6	cat08       	67	alive    	1	moves	1	natural 	1	n	0	0        	 	0.0	0	132.743003899988	132.842997500033	0.0999936000443995
155356	100	376	stimuli/animals/cat/animal_cat10.jpg             	1	5	1	animal_cat10.jpg     	animals  	0	cat       	6	cat10       	69	alive    	1	moves	1	natural 	1	n	0	0        	 	0.0	0	132.893028300023	132.993002600037	0.0999743000138551
155506	100	377	stimuli/movNat/river/mn_river07.jpg              	1	5	1	mn_river07.jpg       	movNat   	3	river     	29	river07     	296	not_alive	0	moves	1	natural 	1	n	0	0        	 	0.0	0	133.043013499992	133.143006200029	0.0999927000375465
155656	100	378	stimuli/animals2/lemur/animal_lemur04.jpg        	1	5	1	animal_lemur04.jpg   	animals2 	1	lemur     	23	lemur04     	233	alive    	1	moves	1	natural 	1	n	0	0        	 	0.0	0	133.193017199985	133.293011000031	0.0999938000459224
155806	100	379	stimuli/movNat/river/mn_river06.jpg              	1	5	1	mn_river06.jpg       	movNat   	3	river     	29	river06     	295	not_alive	0	moves	1	natural 	1	n	0	0        	 	0.0	0	133.343021499983	133.443016499979	0.0999949999968521
155956	100	380	stimuli/animals/eagle/animal_eagle02.jpg         	1	5	1	animal_eagle02.jpg   	animals  	0	eagle     	13	eagle02     	131	alive    	1	moves	1	natural 	1	n	0	0        	 	0.0	0	133.493024400028	133.5930161	0.0999916999717243
156106	100	381	stimuli/plant2/fern/plant_fern01.jpg             	1	5	1	plant_fern01.jpg     	plant2   	7	fern      	14	fern01      	140	alive    	1	still	0	natural 	1	n	0	0        	 	0.0	0	133.643032499996	133.743022500013	0.0999900000169873
156256	100	382	stimuli/animals/dog/animal_dog10.jpg             	1	5	1	animal_dog10.jpg     	animals  	0	dog       	11	dog10       	119	alive    	1	moves	1	natural 	1	n	0	0        	 	0.0	0	133.793033300026	133.893043800024	0.100010499998461
156406	100	383	stimuli/plant/vine/plant_vine08.jpg              	1	5	1	plant_vine08.jpg     	plant    	6	vine      	36	vine08      	367	alive    	1	still	0	natural 	1	n	0	0        	 	0.0	0	133.943039000034	134.043032900023	0.0999938999884762
156556	100	384	stimuli/nonmovNat/rock/nmn_rock06.jpg            	1	5	1	nmn_rock06.jpg       	nonmovNat	5	rock      	30	rock06      	305	not_alive	0	still	0	natural 	1	n	0	0        	 	0.0	0	134.093042800028	134.193035000004	0.0999921999755316
156706	100	385	stimuli/nonmovNat/cliff/nmn_cliff05.jpg          	1	5	1	nmn_cliff05.jpg      	nonmovNat	5	cliff     	7	cliff05     	74	not_alive	0	still	0	natural 	1	n	0	0        	 	0.0	0	134.243048000033	134.343053299992	0.100005299958866
156856	100	386	stimuli/nonmovArt/lock/nma_lock08.jpg            	1	5	1	nma_lock08.jpg       	nonmovArt	4	lock      	24	lock08      	247	not_alive	0	still	0	artefact	0	n	0	0        	 	0.0	0	134.393050600018	134.493045200012	0.0999945999938063
157006	100	387	stimuli/plant2/lemontree/plant_lemontree10.jpg   	1	5	1	plant_lemontree10.jpg	plant2   	7	lemontree 	22	lemontree10 	229	alive    	1	still	0	natural 	1	n	1	0        	 	0.0	0	134.543052699999	134.64304450003	0.0999918000306934
157156	100	388	stimuli/animals2/pigeon/animal_pigeon10.jpg      	1	5	1	animal_pigeon10.jpg  	animals2 	1	pigeon    	28	pigeon10    	289	alive    	1	moves	1	natural 	1	n	0	0        	 	0.0	0	134.693055999989	134.793050999986	0.0999949999968521
157306	100	389	stimuli/plant/cactus/plant_cactus05.jpg          	1	5	1	plant_cactus05.jpg   	plant    	6	cactus    	4	cactus05    	44	alive    	1	still	0	natural 	1	n	0	1        	f	0.300227500032634	1	134.843087200017	134.943056499993	0.0999692999757826
157456	100	390	stimuli/movArt/boat/ma_boat01.jpg                	1	5	1	ma_boat01.jpg        	movArt   	2	boat      	2	boat01      	20	not_alive	0	moves	1	artefact	0	n	0	0        	 	0.0	0	134.993064899987	135.09307599999	0.10001110000303
157606	100	391	stimuli/movNat/fire/mn_fire09.jpg                	1	5	1	mn_fire09.jpg        	movNat   	3	fire      	15	fire09      	158	not_alive	0	moves	1	natural 	1	n	0	0        	 	0.0	0	135.143067000026	135.243060600013	0.0999935999861918
157756	100	392	stimuli/nonmovArt/mug/nma_mug09.jpg              	1	5	1	nma_mug09.jpg        	nonmovArt	4	mug       	26	mug09       	268	not_alive	0	still	0	artefact	0	n	0	0        	 	0.0	0	135.293073699984	135.393067400029	0.099993700045161
157906	100	393	stimuli/plant2/moss/plant_moss05.jpg             	1	5	1	plant_moss05.jpg     	plant2   	7	moss      	25	moss05      	254	alive    	1	still	0	natural 	1	n	0	0        	 	0.0	0	135.443077600037	135.543070900021	0.0999932999839075
158056	100	394	stimuli/plant2/moss/plant_moss02.jpg             	1	5	1	plant_moss02.jpg     	plant2   	7	moss      	25	moss02      	251	alive    	1	still	0	natural 	1	n	0	0        	 	0.0	0	135.593081900035	135.693075000017	0.0999930999823846
158206	100	395	stimuli/movArt/car/ma_car10.jpg                  	1	5	1	ma_car10.jpg         	movArt   	2	car       	5	car10       	59	not_alive	0	moves	1	artefact	0	n	0	0        	 	0.0	0	135.743085100025	135.843077600002	0.0999924999778159
158356	100	396	stimuli/animals/eagle/animal_eagle09.jpg         	1	5	1	animal_eagle09.jpg   	animals  	0	eagle     	13	eagle09     	138	alive    	1	moves	1	natural 	1	n	0	0        	 	0.0	0	135.893109299999	135.993082100002	0.0999728000024334
158506	100	397	stimuli/movNat/river/mn_river04.jpg              	1	5	1	mn_river04.jpg       	movNat   	3	river     	29	river04     	293	not_alive	0	moves	1	natural 	1	n	0	0        	 	0.0	0	136.043093900022	136.143086900003	0.0999929999816231
158656	100	398	stimuli/nonmovNat/sand/nmn_sand03.jpg            	1	5	1	nmn_sand03.jpg       	nonmovNat	5	sand      	31	sand03      	312	not_alive	0	still	0	natural 	1	n	0	0        	 	0.0	0	136.193097100011	136.293090199993	0.0999930999823846
158806	100	399	stimuli/movArt/boat/ma_boat07.jpg                	1	5	1	ma_boat07.jpg        	movArt   	2	boat      	2	boat07      	26	not_alive	0	moves	1	artefact	0	n	0	0        	 	0.0	0	136.343101300008	136.443093699985	0.0999923999770544
161923	100	400	stimuli/movArt/boat/ma_boat10.jpg                	1	6	1	ma_boat10.jpg        	movArt   	2	boat      	2	boat10      	29	not_alive	0	moves	1	artefact	0	n	0	0        	 	0.0	0	139.459852100001	139.559865200019	0.100013100018259
162073	100	401	stimuli/movArt/train/ma_train10.jpg              	1	6	1	ma_train10.jpg       	movArt   	2	train     	34	train10     	349	not_alive	0	moves	1	artefact	0	n	0	0        	 	0.0	0	139.609854299983	139.709849299979	0.0999949999968521
162223	100	402	stimuli/nonmovNat/crystal/nmn_crystal05.jpg      	1	6	1	nmn_crystal05.jpg    	nonmovNat	5	crystal   	10	crystal05   	104	not_alive	0	still	0	natural 	1	n	0	0        	 	0.0	0	139.759857600031	139.859850800014	0.099993199983146
162373	100	403	stimuli/movNat/fire/mn_fire08.jpg                	1	6	1	mn_fire08.jpg        	movNat   	3	fire      	15	fire08      	157	not_alive	0	moves	1	natural 	1	n	0	0        	 	0.0	0	139.909863699984	140.009854300006	0.099990600021556
162523	100	404	stimuli/plant/grass/plant_grass10.jpg            	1	6	1	plant_grass10.jpg    	plant    	6	grass     	17	grass10     	179	alive    	1	still	0	natural 	1	n	0	0        	 	0.0	0	140.059867999982	140.159858400002	0.0999904000200331
162673	100	405	stimuli/nonmovArt/clothespeg/nma_clothespeg07.jpg	1	6	1	nma_clothespeg07.jpg 	nonmovArt	4	clothespeg	8	clothespeg07	86	not_alive	0	still	0	artefact	0	n	0	0        	 	0.0	0	140.209868400008	140.309863800008	0.0999953999998979
162823	100	406	stimuli/nonmovArt/headphones/nma_headphones01.jpg	1	6	1	nma_headphones01.jpg 	nonmovArt	4	headphones	18	headphones01	180	not_alive	0	still	0	artefact	0	n	0	0        	 	0.0	0	140.359877099982	140.45987989998	0.100002799998038
162973	100	407	stimuli/movArt/bus/ma_bus03.jpg                  	1	6	1	ma_bus03.jpg         	movArt   	2	bus       	3	bus03       	32	not_alive	0	moves	1	artefact	0	n	0	0        	 	0.0	0	140.509877500008	140.609870099986	0.0999925999785774
163123	100	408	stimuli/movNat/waterfall/mn_waterfall02.jpg      	1	6	1	mn_waterfall02.jpg   	movNat   	3	waterfall 	37	waterfall02 	371	not_alive	0	moves	1	natural 	1	n	0	0        	 	0.0	0	140.659882800013	140.759874799987	0.0999919999740086
163273	100	409	stimuli/animals/horse/animal_horse09.jpg         	1	6	1	animal_horse09.jpg   	animals  	0	horse     	20	horse09     	208	alive    	1	moves	1	natural 	1	n	0	1        	f	0.0	0	140.809884099988	140.909881300002	0.099997200013604
163423	100	410	stimuli/nonmovNat/sand/nmn_sand09.jpg            	1	6	1	nmn_sand09.jpg       	nonmovNat	5	sand      	31	sand09      	318	not_alive	0	still	0	natural 	1	n	0	0        	 	0.0	0	140.959890600003	141.059883599984	0.0999929999816231
163573	100	411	stimuli/nonmovArt/clothespeg/nma_clothespeg04.jpg	1	6	1	nma_clothespeg04.jpg 	nonmovArt	4	clothespeg	8	clothespeg04	83	not_alive	0	still	0	artefact	0	n	0	0        	 	0.0	0	141.109894299996	141.209884100012	0.0999898000154644
163723	100	412	stimuli/animals2/whale/animal_whale08.jpg        	1	6	1	animal_whale08.jpg   	animals2 	1	whale     	39	whale08     	397	alive    	1	moves	1	natural 	1	n	0	0        	 	0.0	0	141.259898999997	141.359891900036	0.0999929000390694
163873	100	413	stimuli/nonmovNat/sand/nmn_sand06.jpg            	1	6	1	nmn_sand06.jpg       	nonmovNat	5	sand      	31	sand06      	315	not_alive	0	still	0	natural 	1	n	0	0        	 	0.0	0	141.409899400023	141.509915400005	0.100015999982134
