onset	duration	eventnumber	stimulus_file	blockno	trialno	is_faststream	stim	stim_category	category_number	exemplar	exemplar_number	image_name	image_number	aliveness	aliveness_bin	movement	movement_bin	naturalness	naturalness_bin	response_hand_alive	istarget	response	keypressed	rt	correct	time_stimon	time_stimoff	stimdur
151753	100	0	stimuli/plant/tree/plant_tree05.jpg              	1	1	1	plant_tree05.jpg     	plant    	6	tree      	35	tree05      	354	alive    	1	still	0	natural 	1	n	0	0        	 	0.0	0	54.9224195999559	55.0223888000473	0.0999692000914365
151903	100	1	stimuli/movNat/hotspring/mn_hotspring10.jpg      	1	1	1	mn_hotspring10.jpg   	movNat   	3	hotspring 	21	hotspring10 	219	not_alive	0	moves	1	natural 	1	n	0	0        	 	0.0	0	55.0724204001017	55.1723957001232	0.0999753000214696
152053	100	2	stimuli/movNat/waves/mn_waves02.jpg              	1	1	1	mn_waves02.jpg       	movNat   	3	waves     	38	waves02     	381	not_alive	0	moves	1	natural 	1	n	0	0        	 	0.0	0	55.2224318000954	55.3223989999387	0.0999671998433769
152203	100	3	stimuli/plant/flower/plant_flower08.jpg          	1	1	1	plant_flower08.jpg   	plant    	6	flower    	16	flower08    	167	alive    	1	still	0	natural 	1	n	0	0        	 	0.0	0	55.3724072000478	55.4724159999751	0.100008799927309
152353	100	4	stimuli/movArt/train/ma_train10.jpg              	1	1	1	ma_train10.jpg       	movArt   	2	train     	34	train10     	349	not_alive	0	moves	1	artefact	0	n	0	0        	 	0.0	0	55.5224103000946	55.6224040999077	0.0999937998130918
152503	100	5	stimuli/movArt/bus/ma_bus03.jpg                  	1	1	1	ma_bus03.jpg         	movArt   	2	bus       	3	bus03       	32	not_alive	0	moves	1	artefact	0	n	0	0        	 	0.0	0	55.6724151999224	55.772408900084	0.0999937001615763
152653	100	6	stimuli/nonmovArt/lock/nma_lock04.jpg            	1	1	1	nma_lock04.jpg       	nonmovArt	4	lock      	24	lock04      	243	not_alive	0	still	0	artefact	0	n	0	0        	 	0.0	0	55.8224339999724	55.9224121000152	0.0999781000427902
152803	100	7	stimuli/movNat/river/mn_river02.jpg              	1	1	1	mn_river02.jpg       	movNat   	3	river     	29	river02     	291	not_alive	0	moves	1	natural 	1	n	0	0        	 	0.0	0	55.9727117998991	56.0724206001032	0.0997088002040982
152953	100	8	stimuli/nonmovArt/lock/nma_lock09.jpg            	1	1	1	nma_lock09.jpg       	nonmovArt	4	lock      	24	lock09      	248	not_alive	0	still	0	artefact	0	n	0	0        	 	0.0	0	56.1224398000632	56.2224204000086	0.0999805999454111
153103	100	9	stimuli/nonmovArt/mug/nma_mug05.jpg              	1	1	1	nma_mug05.jpg        	nonmovArt	4	mug       	26	mug05       	264	not_alive	0	still	0	artefact	0	n	0	0        	 	0.0	0	56.2724365999456	56.3724245999474	0.0999880000017583
153253	100	10	stimuli/animals/horse/animal_horse03.jpg         	1	1	1	animal_horse03.jpg   	animals  	0	horse     	20	horse03     	202	alive    	1	moves	1	natural 	1	n	0	0        	 	0.0	0	56.422435299959	56.5224303000141	0.0999950000550598
153403	100	11	stimuli/plant/cactus/plant_cactus10.jpg          	1	1	1	plant_cactus10.jpg   	plant    	6	cactus    	4	cactus10    	49	alive    	1	still	0	natural 	1	n	0	0        	 	0.0	0	56.5724450000562	56.6724314000457	0.0999863999895752
153553	100	12	stimuli/nonmovNat/cliff/nmn_cliff06.jpg          	1	1	1	nmn_cliff06.jpg      	nonmovNat	5	cliff     	7	cliff06     	75	not_alive	0	still	0	natural 	1	n	0	0        	 	0.0	0	56.7224455000833	56.822440699907	0.099995199823752
153703	100	13	stimuli/animals/eagle/animal_eagle09.jpg         	1	1	1	animal_eagle09.jpg   	animals  	0	eagle     	13	eagle09     	138	alive    	1	moves	1	natural 	1	n	0	0        	 	0.0	0	56.8724478001241	56.9724401999265	0.0999923998024315
153853	100	14	stimuli/movNat/waterfall/mn_waterfall04.jpg      	1	1	1	mn_waterfall04.jpg   	movNat   	3	waterfall 	37	waterfall04 	373	not_alive	0	moves	1	natural 	1	n	0	0        	 	0.0	0	57.0224518999457	57.1224469000008	0.0999950000550598
154003	100	15	stimuli/plant/vine/plant_vine10.jpg              	1	1	1	plant_vine10.jpg     	plant    	6	vine      	36	vine10      	369	alive    	1	still	0	natural 	1	n	0	0        	 	0.0	0	57.1724543999881	57.2724498000462	0.0999954000581056
154153	100	16	stimuli/nonmovNat/rock/nmn_rock06.jpg            	1	1	1	nmn_rock06.jpg       	nonmovNat	5	rock      	30	rock06      	305	not_alive	0	still	0	natural 	1	n	0	0        	 	0.0	0	57.3224613999482	57.4224515000824	0.0999901001341641
154303	100	17	stimuli/movNat/waves/mn_waves02.jpg              	1	1	1	mn_waves02.jpg       	movNat   	3	waves     	38	waves02     	381	not_alive	0	moves	1	natural 	1	n	0	0        	 	0.0	0	57.4724600999616	57.5724673001096	0.100007200147957
154453	100	18	stimuli/plant/cactus/plant_cactus06.jpg          	1	1	1	plant_cactus06.jpg   	plant    	6	cactus    	4	cactus06    	45	alive    	1	still	0	natural 	1	n	0	0        	 	0.0	0	57.6224619999994	57.7224544000346	0.0999924000352621
154603	100	19	stimuli/movArt/car/ma_car06.jpg                  	1	1	1	ma_car06.jpg         	movArt   	2	car       	5	car06       	55	not_alive	0	moves	1	artefact	0	n	0	0        	 	0.0	0	57.7724663999397	57.8724573999643	0.0999910000246018
154753	100	20	stimuli/nonmovArt/clothespeg/nma_clothespeg07.jpg	1	1	1	nma_clothespeg07.jpg 	nonmovArt	4	clothespeg	8	clothespeg07	86	not_alive	0	still	0	artefact	0	n	0	0        	 	0.0	0	57.9224706999958	58.0224617999047	0.0999910999089479
154903	100	21	stimuli/nonmovNat/cliff/nmn_cliff03.jpg          	1	1	1	nmn_cliff03.jpg      	nonmovNat	5	cliff     	7	cliff03     	72	not_alive	0	still	0	natural 	1	n	0	0        	 	0.0	0	58.0724633999635	58.1724797000643	0.100016300100833
155053	100	22	stimuli/plant/flower/plant_flower05.jpg          	1	1	1	plant_flower05.jpg   	plant    	6	flower    	16	flower05    	164	alive    	1	still	0	natural 	1	n	0	0        	 	0.0	0	58.2224934000988	58.3224832001142	0.0999898000154644
155203	100	23	stimuli/animals2/lemur/animal_lemur10.jpg        	1	1	1	animal_lemur10.jpg   	animals2 	1	lemur     	23	lemur10     	239	alive    	1	moves	1	natural 	1	n	0	0        	 	0.0	0	58.3725097998977	58.4725025000516	0.0999927001539618
155353	100	24	stimuli/animals/cat/animal_cat02.jpg             	1	1	1	animal_cat02.jpg     	animals  	0	cat       	6	cat02       	61	alive    	1	moves	1	natural 	1	n	0	0        	 	0.0	0	58.5225013000891	58.6225062001031	0.100004900014028
155503	100	25	stimuli/animals/eagle/animal_eagle04.jpg         	1	1	1	animal_eagle04.jpg   	animals  	0	eagle     	13	eagle04     	133	alive    	1	moves	1	natural 	1	n	1	0        	 	0.0	0	58.6725908000953	58.7724892999977	0.0998984999023378
155653	100	26	stimuli/animals/horse/animal_horse01.jpg         	1	1	1	animal_horse01.jpg   	animals  	0	horse     	20	horse01     	200	alive    	1	moves	1	natural 	1	n	0	0        	 	0.0	0	58.8225118999835	58.9225051999092	0.0999932999256998
155803	100	27	stimuli/plant2/clover/plant_clover06.jpg         	1	1	1	plant_clover06.jpg   	plant2   	7	clover    	9	clover06    	95	alive    	1	still	0	natural 	1	n	0	0        	 	0.0	0	58.9725162000395	59.0724981001113	0.0999819000717252
155953	100	28	stimuli/animals2/whale/animal_whale05.jpg        	1	1	1	animal_whale05.jpg   	animals2 	1	whale     	39	whale05     	394	alive    	1	moves	1	natural 	1	n	0	1        	f	0.450849799904972	1	59.1225246000104	59.222516000038	0.0999914000276476
156103	100	29	stimuli/movNat/river/mn_river03.jpg              	1	1	1	mn_river03.jpg       	movNat   	3	river     	29	river03     	292	not_alive	0	moves	1	natural 	1	n	0	0        	 	0.0	0	59.2725271000527	59.3725165999495	0.0999894998967648
156253	100	30	stimuli/plant2/moss/plant_moss07.jpg             	1	1	1	plant_moss07.jpg     	plant2   	7	moss      	25	moss07      	256	alive    	1	still	0	natural 	1	n	0	0        	 	0.0	0	59.4225294000935	59.5225315999705	0.100002199877053
156403	100	31	stimuli/movArt/helicopter/ma_helicopter01.jpg    	1	1	1	ma_helicopter01.jpg  	movArt   	2	helicopter	19	helicopter01	190	not_alive	0	moves	1	artefact	0	n	0	0        	 	0.0	0	59.572546399897	59.6725351999048	0.0999888000078499
156553	100	32	stimuli/animals2/lemur/animal_lemur04.jpg        	1	1	1	animal_lemur04.jpg   	animals2 	1	lemur     	23	lemur04     	233	alive    	1	moves	1	natural 	1	n	0	0        	 	0.0	0	59.7225482999347	59.8225388999563	0.099990600021556
156703	100	33	stimuli/plant2/lemontree/plant_lemontree04.jpg   	1	1	1	plant_lemontree04.jpg	plant2   	7	lemontree 	22	lemontree04 	223	alive    	1	still	0	natural 	1	n	0	0        	 	0.0	0	59.8725354999769	59.9725254999939	0.0999900000169873
156853	100	34	stimuli/animals2/pigeon/animal_pigeon05.jpg      	1	1	1	animal_pigeon05.jpg  	animals2 	1	pigeon    	28	pigeon05    	284	alive    	1	moves	1	natural 	1	n	0	0        	 	0.0	0	60.0225436999463	60.1225477999542	0.100004100007936
157003	100	35	stimuli/animals2/pigeon/animal_pigeon08.jpg      	1	1	1	animal_pigeon08.jpg  	animals2 	1	pigeon    	28	pigeon08    	287	alive    	1	moves	1	natural 	1	n	0	0        	 	0.0	0	60.1725572999567	60.272550499998	0.0999932000413537
157153	100	36	stimuli/nonmovArt/mug/nma_mug08.jpg              	1	1	1	nma_mug08.jpg        	nonmovArt	4	mug       	26	mug08       	267	not_alive	0	still	0	artefact	0	n	0	0        	 	0.0	0	60.322553700069	60.4225530999247	0.0999993998557329
157303	100	37	stimuli/nonmovArt/bench/nma_bench02.jpg          	1	1	1	nma_bench02.jpg      	nonmovArt	4	bench     	1	bench02     	11	not_alive	0	still	0	artefact	0	n	0	0        	 	0.0	0	60.4725486000534	60.5725624000188	0.100013799965382
157453	100	38	stimuli/animals/eagle/animal_eagle07.jpg         	1	1	1	animal_eagle07.jpg   	animals  	0	eagle     	13	eagle07     	136	alive    	1	moves	1	natural 	1	n	0	0        	 	0.0	0	60.6225733000319	60.7225665999576	0.0999932999256998
157603	100	39	stimuli/nonmovNat/sand/nmn_sand10.jpg            	1	1	1	nmn_sand10.jpg       	nonmovNat	5	sand      	31	sand10      	319	not_alive	0	still	0	natural 	1	n	0	0        	 	0.0	0	60.7725913999602	60.872559600044	0.099968200083822
157753	100	40	stimuli/animals2/lemur/animal_lemur10.jpg        	1	1	1	animal_lemur10.jpg   	animals2 	1	lemur     	23	lemur10     	239	alive    	1	moves	1	natural 	1	n	0	0        	 	0.0	0	60.9225814000238	61.022560399957	0.0999789999332279
157903	100	41	stimuli/nonmovNat/rock/nmn_rock05.jpg            	1	1	1	nmn_rock05.jpg       	nonmovNat	5	rock      	30	rock05      	304	not_alive	0	still	0	natural 	1	n	0	0        	 	0.0	0	61.0725618000142	61.1725679999217	0.100006199907511
158053	100	42	stimuli/nonmovArt/headphones/nma_headphones08.jpg	1	1	1	nma_headphones08.jpg 	nonmovArt	4	headphones	18	headphones08	187	not_alive	0	still	0	artefact	0	n	0	0        	 	0.0	0	61.222575499909	61.3225710999686	0.0999956000596285
158203	100	43	stimuli/movArt/car/ma_car04.jpg                  	1	1	1	ma_car04.jpg         	movArt   	2	car       	5	car04       	53	not_alive	0	moves	1	artefact	0	n	1	0        	 	0.0	0	61.3725844000001	61.4725808999501	0.0999964999500662
158353	100	44	stimuli/plant2/fern/plant_fern06.jpg             	1	1	1	plant_fern06.jpg     	plant2   	7	fern      	14	fern06      	145	alive    	1	still	0	natural 	1	n	0	0        	 	0.0	0	61.5225772000849	61.6225916000549	0.10001439996995
158503	100	45	stimuli/plant2/palmtree/plant_palmtree08.jpg     	1	1	1	plant_palmtree08.jpg 	plant2   	7	palmtree  	27	palmtree08  	277	alive    	1	still	0	natural 	1	n	0	1        	f	0.292210400104523	1	61.6725991000421	61.7725919000804	0.0999928000383079
158653	100	46	stimuli/nonmovArt/clothespeg/nma_clothespeg08.jpg	1	1	1	nma_clothespeg08.jpg 	nonmovArt	4	clothespeg	8	clothespeg08	87	not_alive	0	still	0	artefact	0	n	0	0        	 	0.0	0	61.8225998999551	61.9225945000071	0.099994600052014
158803	100	47	stimuli/animals/dolphin/animal_dolphin05.jpg     	1	1	1	animal_dolphin05.jpg 	animals  	0	dolphin   	12	dolphin05   	124	alive    	1	moves	1	natural 	1	n	0	0        	 	0.0	0	61.972587400116	62.0725821999367	0.0999947998207062
158953	100	48	stimuli/nonmovArt/headphones/nma_headphones02.jpg	1	1	1	nma_headphones02.jpg 	nonmovArt	4	headphones	18	headphones02	181	not_alive	0	still	0	artefact	0	n	0	0        	 	0.0	0	62.122592800064	62.222587400116	0.099994600052014
159103	100	49	stimuli/animals2/tiger/animal_tiger07.jpg        	1	1	1	animal_tiger07.jpg   	animals2 	1	tiger     	33	tiger07     	336	alive    	1	moves	1	natural 	1	n	0	0        	 	0.0	0	62.2725961001124	62.3726079000626	0.100011799950153
159253	100	50	stimuli/movNat/hotspring/mn_hotspring05.jpg      	1	1	1	mn_hotspring05.jpg   	movNat   	3	hotspring 	21	hotspring05 	214	not_alive	0	moves	1	natural 	1	n	0	0        	 	0.0	0	62.4225995000452	62.5225947001018	0.0999952000565827
159403	100	51	stimuli/animals2/bee/animal_bee02.jpg            	1	1	1	animal_bee02.jpg     	animals2 	1	bee       	0	bee02       	1	alive    	1	moves	1	natural 	1	n	0	0        	 	0.0	0	62.5726107000373	62.6725985000376	0.0999878000002354
159553	100	52	stimuli/plant2/moss/plant_moss10.jpg             	1	1	1	plant_moss10.jpg     	plant2   	7	moss      	25	moss10      	259	alive    	1	still	0	natural 	1	n	0	0        	 	0.0	0	62.722623199923	62.8226010999642	0.0999779000412673
159703	100	53	stimuli/movNat/fire/mn_fire09.jpg                	1	1	1	mn_fire09.jpg        	movNat   	3	fire      	15	fire09      	158	not_alive	0	moves	1	natural 	1	n	0	0        	 	0.0	0	62.8726145001128	62.9726100000553	0.0999954999424517
159853	100	54	stimuli/animals2/tiger/animal_tiger03.jpg        	1	1	1	animal_tiger03.jpg   	animals2 	1	tiger     	33	tiger03     	332	alive    	1	moves	1	natural 	1	n	0	0        	 	0.0	0	63.0226382999681	63.1226268999744	0.099988600006327
160003	100	55	stimuli/plant/flower/plant_flower07.jpg          	1	1	1	plant_flower07.jpg   	plant    	6	flower    	16	flower07    	166	alive    	1	still	0	natural 	1	n	0	0        	 	0.0	0	63.1726190000772	63.272612300003	0.0999932999256998
160153	100	56	stimuli/animals/cat/animal_cat01.jpg             	1	1	1	animal_cat01.jpg     	animals  	0	cat       	6	cat01       	60	alive    	1	moves	1	natural 	1	n	0	0        	 	0.0	0	63.3226465999615	63.4226275999099	0.0999809999484569
160303	100	57	stimuli/animals/cat/animal_cat03.jpg             	1	1	1	animal_cat03.jpg     	animals  	0	cat       	6	cat03       	62	alive    	1	moves	1	natural 	1	n	0	0        	 	0.0	0	63.4726317001041	63.572636900004	0.100005199899897
160453	100	58	stimuli/nonmovNat/cliff/nmn_cliff07.jpg          	1	1	1	nmn_cliff07.jpg      	nonmovNat	5	cliff     	7	cliff07     	76	not_alive	0	still	0	natural 	1	n	0	0        	 	0.0	0	63.6226325000171	63.7226207000203	0.0999882000032812
160603	100	59	stimuli/animals/dolphin/animal_dolphin08.jpg     	1	1	1	animal_dolphin08.jpg 	animals  	0	dolphin   	12	dolphin08   	127	alive    	1	moves	1	natural 	1	n	0	0        	 	0.0	0	63.7726350999437	63.8726562000811	0.100021100137383
160753	100	60	stimuli/animals/dog/animal_dog02.jpg             	1	1	1	animal_dog02.jpg     	animals  	0	dog       	11	dog02       	111	alive    	1	moves	1	natural 	1	n	0	0        	 	0.0	0	63.9226405001245	64.0226483999286	0.100007899804041
160903	100	61	stimuli/nonmovArt/lock/nma_lock05.jpg            	1	1	1	nma_lock05.jpg       	nonmovArt	4	lock      	24	lock05      	244	not_alive	0	still	0	artefact	0	n	0	0        	 	0.0	0	64.072645700071	64.1726460999344	0.100000399863347
161053	100	62	stimuli/movArt/boat/ma_boat10.jpg                	1	1	1	ma_boat10.jpg        	movArt   	2	boat      	2	boat10      	29	not_alive	0	moves	1	artefact	0	n	0	0        	 	0.0	0	64.2226652000099	64.3226419000421	0.0999767000321299
161203	100	63	stimuli/movNat/waves/mn_waves10.jpg              	1	1	1	mn_waves10.jpg       	movNat   	3	waves     	38	waves10     	389	not_alive	0	moves	1	natural 	1	n	0	0        	 	0.0	0	64.3726542999502	64.4726871999446	0.100032899994403
161353	100	64	stimuli/nonmovArt/bench/nma_bench02.jpg          	1	1	1	nma_bench02.jpg      	nonmovArt	4	bench     	1	bench02     	11	not_alive	0	still	0	artefact	0	n	0	0        	 	0.0	0	64.5226722001098	64.6226492000278	0.0999769999179989
161503	100	65	stimuli/movArt/bus/ma_bus08.jpg                  	1	1	1	ma_bus08.jpg         	movArt   	2	bus       	3	bus08       	37	not_alive	0	moves	1	artefact	0	n	0	0        	 	0.0	0	64.6726742000319	64.772674900014	0.100000699982047
161653	100	66	stimuli/plant/tree/plant_tree07.jpg              	1	1	1	plant_tree07.jpg     	plant    	6	tree      	35	tree07      	356	alive    	1	still	0	natural 	1	n	0	1        	f	0.0	0	64.8226660001092	64.9226613000501	0.0999952999409288
161803	100	67	stimuli/plant2/fern/plant_fern10.jpg             	1	1	1	plant_fern10.jpg     	plant2   	7	fern      	14	fern10      	149	alive    	1	still	0	natural 	1	n	1	0        	 	0.0	0	64.9726847999264	65.0726680001244	0.0999832001980394
161953	100	68	stimuli/animals2/whale/animal_whale07.jpg        	1	1	1	animal_whale07.jpg   	animals2 	1	whale     	39	whale07     	396	alive    	1	moves	1	natural 	1	n	0	0        	 	0.0	0	65.1226898999885	65.222665600013	0.0999757000245154
162103	100	69	stimuli/plant2/palmtree/plant_palmtree06.jpg     	1	1	1	plant_palmtree06.jpg 	plant2   	7	palmtree  	27	palmtree06  	275	alive    	1	still	0	natural 	1	n	0	0        	 	0.0	0	65.2726920000277	65.372690499993	0.0999984999652952
162253	100	70	stimuli/animals/horse/animal_horse03.jpg         	1	1	1	animal_horse03.jpg   	animals  	0	horse     	20	horse03     	202	alive    	1	moves	1	natural 	1	n	0	0        	 	0.0	0	65.4226842999924	65.5226740001235	0.0999897001311183
162403	100	71	stimuli/nonmovArt/clothespeg/nma_clothespeg10.jpg	1	1	1	nma_clothespeg10.jpg 	nonmovArt	4	clothespeg	8	clothespeg10	89	not_alive	0	still	0	artefact	0	n	0	0        	 	0.0	0	65.5727003000211	65.6726965999696	0.0999962999485433
162553	100	72	stimuli/animals2/pigeon/animal_pigeon06.jpg      	1	1	1	animal_pigeon06.jpg  	animals2 	1	pigeon    	28	pigeon06    	285	alive    	1	moves	1	natural 	1	n	0	0        	 	0.0	0	65.7227032999508	65.8226813001093	0.099978000158444
162703	100	73	stimuli/nonmovNat/crystal/nmn_crystal02.jpg      	1	1	1	nmn_crystal02.jpg    	nonmovNat	5	crystal   	10	crystal02   	101	not_alive	0	still	0	natural 	1	n	0	0        	 	0.0	0	65.8727075001225	65.9726855000481	0.0999779999256134
162853	100	74	stimuli/movArt/helicopter/ma_helicopter02.jpg    	1	1	1	ma_helicopter02.jpg  	movArt   	2	helicopter	19	helicopter02	191	not_alive	0	moves	1	artefact	0	n	0	0        	 	0.0	0	66.0226952999365	66.1226882999763	0.0999930000398308
163003	100	75	stimuli/animals/dog/animal_dog02.jpg             	1	1	1	animal_dog02.jpg     	animals  	0	dog       	11	dog02       	111	alive    	1	moves	1	natural 	1	n	0	0        	 	0.0	0	66.1727104999591	66.2726932999212	0.099982799962163
163153	100	76	stimuli/plant/grass/plant_grass03.jpg            	1	1	1	plant_grass03.jpg    	plant    	6	grass     	17	grass03     	172	alive    	1	still	0	natural 	1	n	0	0        	 	0.0	0	66.322690699948	66.4226965999696	0.100005900021642
163303	100	77	stimuli/nonmovNat/sand/nmn_sand04.jpg            	1	1	1	nmn_sand04.jpg       	nonmovNat	5	sand      	31	sand04      	313	not_alive	0	still	0	natural 	1	n	0	0        	 	0.0	0	66.4727070000954	66.5727001999039	0.0999931998085231
163453	100	78	stimuli/plant/vine/plant_vine08.jpg              	1	1	1	plant_vine08.jpg     	plant    	6	vine      	36	vine08      	367	alive    	1	still	0	natural 	1	n	0	0        	 	0.0	0	66.6227120000403	66.7227058000863	0.0999938000459224
163603	100	79	stimuli/plant2/clover/plant_clover10.jpg         	1	1	1	plant_clover10.jpg   	plant2   	7	clover    	9	clover10    	99	alive    	1	still	0	natural 	1	n	0	0        	 	0.0	0	66.7727318999823	66.8727218999993	0.0999900000169873
167370	100	80	stimuli/nonmovNat/shell/nmn_shell02.jpg          	1	2	1	nmn_shell02.jpg      	nonmovNat	5	shell     	32	shell02     	321	not_alive	0	still	0	natural 	1	n	0	0        	 	0.0	0	70.5395069001243	70.6394648998976	0.0999579997733235
167520	100	81	stimuli/movNat/waterfall/mn_waterfall03.jpg      	1	2	1	mn_waterfall03.jpg   	movNat   	3	waterfall 	37	waterfall03 	372	not_alive	0	moves	1	natural 	1	n	0	0        	 	0.0	0	70.6894747999031	70.7894693000708	0.0999945001676679
167670	100	82	stimuli/movArt/train/ma_train02.jpg              	1	2	1	ma_train02.jpg       	movArt   	2	train     	34	train02     	341	not_alive	0	moves	1	artefact	0	n	0	0        	 	0.0	0	70.8394770999439	70.9394849999808	0.100007900036871
167820	100	83	stimuli/movNat/hotspring/mn_hotspring03.jpg      	1	2	1	mn_hotspring03.jpg   	movNat   	3	hotspring 	21	hotspring03 	212	not_alive	0	moves	1	natural 	1	n	0	0        	 	0.0	0	70.9894823001232	71.0894768999424	0.0999945998191834
167970	100	84	stimuli/movNat/river/mn_river10.jpg              	1	2	1	mn_river10.jpg       	movNat   	3	river     	29	river10     	299	not_alive	0	moves	1	natural 	1	n	0	0        	 	0.0	0	71.1395032000728	71.239480300108	0.0999771000351757
168120	100	85	stimuli/animals/dog/animal_dog10.jpg             	1	2	1	animal_dog10.jpg     	animals  	0	dog       	11	dog10       	119	alive    	1	moves	1	natural 	1	n	0	0        	 	0.0	0	71.2895325999707	71.3894843000453	0.0999517000745982
168270	100	86	stimuli/animals/dolphin/animal_dolphin06.jpg     	1	2	1	animal_dolphin06.jpg 	animals  	0	dolphin   	12	dolphin06   	125	alive    	1	moves	1	natural 	1	n	0	0        	 	0.0	0	71.4394952000584	71.5395019999705	0.10000679991208
168420	100	87	stimuli/nonmovNat/crystal/nmn_crystal05.jpg      	1	2	1	nmn_crystal05.jpg    	nonmovNat	5	crystal   	10	crystal05   	104	not_alive	0	still	0	natural 	1	n	0	0        	 	0.0	0	71.5895028000232	71.6894968000706	0.0999940000474453
168570	100	88	stimuli/animals2/bee/animal_bee09.jpg            	1	2	1	animal_bee09.jpg     	animals2 	1	bee       	0	bee09       	8	alive    	1	moves	1	natural 	1	n	0	0        	 	0.0	0	71.7395021999255	71.8395197000355	0.100017500109971
168720	100	89	stimuli/movArt/helicopter/ma_helicopter09.jpg    	1	2	1	ma_helicopter09.jpg  	movArt   	2	helicopter	19	helicopter09	198	not_alive	0	moves	1	artefact	0	n	0	0        	 	0.0	0	71.8895191000775	71.989500500029	0.0999813999515027
168870	100	90	stimuli/nonmovNat/shell/nmn_shell05.jpg          	1	2	1	nmn_shell05.jpg      	nonmovNat	5	shell     	32	shell05     	324	not_alive	0	still	0	natural 	1	n	0	0        	 	0.0	0	72.0395221000071	72.1395046000835	0.099982500076294
169020	100	91	stimuli/plant2/lemontree/plant_lemontree10.jpg   	1	2	1	plant_lemontree10.jpg	plant2   	7	lemontree 	22	lemontree10 	229	alive    	1	still	0	natural 	1	n	0	0        	 	0.0	0	72.1895147000905	72.2895082999021	0.0999935998115689
169170	100	92	stimuli/movNat/waterfall/mn_waterfall01.jpg      	1	2	1	mn_waterfall01.jpg   	movNat   	3	waterfall 	37	waterfall01 	370	not_alive	0	moves	1	natural 	1	n	0	0        	 	0.0	0	72.3395193999168	72.4395119999536	0.099992600036785
169320	100	93	stimuli/plant/tree/plant_tree05.jpg              	1	2	1	plant_tree05.jpg     	plant    	6	tree      	35	tree05      	354	alive    	1	still	0	natural 	1	n	0	0        	 	0.0	0	72.4895242999773	72.589515700005	0.0999914000276476
169470	100	94	stimuli/plant2/clover/plant_clover06.jpg         	1	2	1	plant_clover06.jpg   	plant2   	7	clover    	9	clover06    	95	alive    	1	still	0	natural 	1	n	0	0        	 	0.0	0	72.6395324000623	72.7395180999301	0.0999856998678297
169620	100	95	stimuli/nonmovArt/headphones/nma_headphones02.jpg	1	2	1	nma_headphones02.jpg 	nonmovArt	4	headphones	18	headphones02	181	not_alive	0	still	0	artefact	0	n	0	0        	 	0.0	0	72.7895327999722	72.8895270000212	0.0999942000489682
169770	100	96	stimuli/plant2/moss/plant_moss01.jpg             	1	2	1	plant_moss01.jpg     	plant2   	7	moss      	25	moss01      	250	alive    	1	still	0	natural 	1	n	1	0        	 	0.0	0	72.9395337000024	73.0395283999387	0.0999946999363601
169920	100	97	stimuli/nonmovArt/mug/nma_mug01.jpg              	1	2	1	nma_mug01.jpg        	nonmovArt	4	mug       	26	mug01       	260	not_alive	0	still	0	artefact	0	n	0	0        	 	0.0	0	73.0895414000843	73.1895322001074	0.0999908000230789
170070	100	98	stimuli/plant2/fern/plant_fern01.jpg             	1	2	1	plant_fern01.jpg     	plant2   	7	fern      	14	fern01      	140	alive    	1	still	0	natural 	1	n	0	1        	f	0.292184199905023	1	73.2395411999896	73.3395364999305	0.0999952999409288
170220	100	99	stimuli/plant/grass/plant_grass06.jpg            	1	2	1	plant_grass06.jpg    	plant    	6	grass     	17	grass06     	175	alive    	1	still	0	natural 	1	n	0	0        	 	0.0	0	73.3895475999452	73.4895385000855	0.0999909001402557
170370	100	100	stimuli/animals2/tiger/animal_tiger06.jpg        	1	2	1	animal_tiger06.jpg   	animals2 	1	tiger     	33	tiger06     	335	alive    	1	moves	1	natural 	1	n	0	0        	 	0.0	0	73.5395502999891	73.6395429999102	0.0999926999211311
170520	100	101	stimuli/movArt/car/ma_car09.jpg                  	1	2	1	ma_car09.jpg         	movArt   	2	car       	5	car09       	58	not_alive	0	moves	1	artefact	0	n	0	0        	 	0.0	0	73.6895538999233	73.7895474000834	0.0999935001600534
170670	100	102	stimuli/movNat/fire/mn_fire10.jpg                	1	2	1	mn_fire10.jpg        	movNat   	3	fire      	15	fire10      	159	not_alive	0	moves	1	natural 	1	n	0	0        	 	0.0	0	73.8395571000874	73.9395506000146	0.0999934999272227
170820	100	103	stimuli/nonmovNat/sand/nmn_sand04.jpg            	1	2	1	nmn_sand04.jpg       	nonmovNat	5	sand      	31	sand04      	313	not_alive	0	still	0	natural 	1	n	0	0        	 	0.0	0	73.9895848000888	74.0895567999687	0.0999719998799264
170970	100	104	stimuli/plant/cactus/plant_cactus08.jpg          	1	2	1	plant_cactus08.jpg   	plant    	6	cactus    	4	cactus08    	47	alive    	1	still	0	natural 	1	n	0	0        	 	0.0	0	74.1395670999773	74.2395913999062	0.100024299928918
171120	100	105	stimuli/nonmovArt/bench/nma_bench06.jpg          	1	2	1	nma_bench06.jpg      	nonmovArt	4	bench     	1	bench06     	15	not_alive	0	still	0	artefact	0	n	0	0        	 	0.0	0	74.2895702000242	74.3895656000823	0.0999954000581056
171270	100	106	stimuli/nonmovNat/rock/nmn_rock09.jpg            	1	2	1	nmn_rock09.jpg       	nonmovNat	5	rock      	30	rock09      	308	not_alive	0	still	0	natural 	1	n	0	0        	 	0.0	0	74.4395749000832	74.5395806001034	0.10000570002012
171420	100	107	stimuli/plant/grass/plant_grass09.jpg            	1	2	1	plant_grass09.jpg    	plant    	6	grass     	17	grass09     	178	alive    	1	still	0	natural 	1	n	0	0        	 	0.0	0	74.5895785000175	74.6895731999539	0.0999946999363601
171570	100	108	stimuli/movArt/train/ma_train01.jpg              	1	2	1	ma_train01.jpg       	movArt   	2	train     	34	train01     	340	not_alive	0	moves	1	artefact	0	n	0	0        	 	0.0	0	74.7395830999594	74.8395732000936	0.0999901001341641
171720	100	109	stimuli/movArt/bus/ma_bus10.jpg                  	1	2	1	ma_bus10.jpg         	movArt   	2	bus       	3	bus10       	39	not_alive	0	moves	1	artefact	0	n	0	0        	 	0.0	0	74.889589099912	74.9895739001222	0.0999848002102226
171870	100	110	stimuli/plant2/palmtree/plant_palmtree03.jpg     	1	2	1	plant_palmtree03.jpg 	plant2   	7	palmtree  	27	palmtree03  	272	alive    	1	still	0	natural 	1	n	0	0        	 	0.0	0	75.0395879999269	75.1395849999972	0.0999970000702888
172020	100	111	stimuli/nonmovNat/crystal/nmn_crystal09.jpg      	1	2	1	nmn_crystal09.jpg    	nonmovNat	5	crystal   	10	crystal09   	108	not_alive	0	still	0	natural 	1	n	0	0        	 	0.0	0	75.1895938001107	75.2895867000334	0.099992899922654
172170	100	112	stimuli/movNat/fire/mn_fire09.jpg                	1	2	1	mn_fire09.jpg        	movNat   	3	fire      	15	fire09      	158	not_alive	0	moves	1	natural 	1	n	0	0        	 	0.0	0	75.3395968000405	75.439591600094	0.0999948000535369
172320	100	113	stimuli/plant/vine/plant_vine09.jpg              	1	2	1	plant_vine09.jpg     	plant    	6	vine      	36	vine09      	368	alive    	1	still	0	natural 	1	n	0	0        	 	0.0	0	75.4896003000904	75.5896054999903	0.100005199899897
172470	100	114	stimuli/animals2/bee/animal_bee02.jpg            	1	2	1	animal_bee02.jpg     	animals2 	1	bee       	0	bee02       	1	alive    	1	moves	1	natural 	1	n	0	0        	 	0.0	0	75.6396069999319	75.7396116999444	0.100004700012505
172620	100	115	stimuli/animals2/whale/animal_whale08.jpg        	1	2	1	animal_whale08.jpg   	animals2 	1	whale     	39	whale08     	397	alive    	1	moves	1	natural 	1	n	0	0        	 	0.0	0	75.7896112999879	75.8896186999045	0.100007399916649
172770	100	116	stimuli/movArt/boat/ma_boat08.jpg                	1	2	1	ma_boat08.jpg        	movArt   	2	boat      	2	boat08      	27	not_alive	0	moves	1	artefact	0	n	0	0        	 	0.0	0	75.9396150000393	76.0396058000624	0.0999908000230789
172920	100	117	stimuli/movArt/boat/ma_boat08.jpg                	1	2	1	ma_boat08.jpg        	movArt   	2	boat      	2	boat08      	27	not_alive	0	moves	1	artefact	0	n	1	0        	 	0.0	0	76.0896529001184	76.1896114000119	0.0999584998935461
173070	100	118	stimuli/nonmovNat/shell/nmn_shell09.jpg          	1	2	1	nmn_shell09.jpg      	nonmovNat	5	shell     	32	shell09     	328	not_alive	0	still	0	natural 	1	n	0	0        	 	0.0	0	76.2396219999064	76.3396298000589	0.100007800152525
173220	100	119	stimuli/plant2/lemontree/plant_lemontree07.jpg   	1	2	1	plant_lemontree07.jpg	plant2   	7	lemontree 	22	lemontree07 	226	alive    	1	still	0	natural 	1	n	0	1        	f	0.391953799873591	1	76.3896278000902	76.4896368000191	0.100008999928832
173370	100	120	stimuli/animals/cat/animal_cat06.jpg             	1	2	1	animal_cat06.jpg     	animals  	0	cat       	6	cat06       	65	alive    	1	moves	1	natural 	1	n	0	0        	 	0.0	0	76.5396485999227	76.639625800075	0.0999772001523524
173520	100	121	stimuli/nonmovNat/cliff/nmn_cliff05.jpg          	1	2	1	nmn_cliff05.jpg      	nonmovNat	5	cliff     	7	cliff05     	74	not_alive	0	still	0	natural 	1	n	0	0        	 	0.0	0	76.6896508999635	76.7896261001006	0.0999752001371235
173670	100	122	stimuli/animals2/bee/animal_bee01.jpg            	1	2	1	animal_bee01.jpg     	animals2 	1	bee       	0	bee01       	0	alive    	1	moves	1	natural 	1	n	0	0        	 	0.0	0	76.8396664001048	76.9396301000379	0.0999636999331415
173820	100	123	stimuli/nonmovArt/mug/nma_mug03.jpg              	1	2	1	nma_mug03.jpg        	nonmovArt	4	mug       	26	mug03       	262	not_alive	0	still	0	artefact	0	n	0	0        	 	0.0	0	76.9896412999369	77.0896491000895	0.100007800152525
173970	100	124	stimuli/movNat/fire/mn_fire06.jpg                	1	2	1	mn_fire06.jpg        	movNat   	3	fire      	15	fire06      	155	not_alive	0	moves	1	natural 	1	n	0	0        	 	0.0	0	77.1396451999899	77.2396386999171	0.0999934999272227
174120	100	125	stimuli/animals2/lemur/animal_lemur05.jpg        	1	2	1	animal_lemur05.jpg   	animals2 	1	lemur     	23	lemur05     	234	alive    	1	moves	1	natural 	1	n	0	0        	 	0.0	0	77.289650300052	77.3896433999762	0.0999930999241769
174270	100	126	stimuli/nonmovNat/shell/nmn_shell01.jpg          	1	2	1	nmn_shell01.jpg      	nonmovNat	5	shell     	32	shell01     	320	not_alive	0	still	0	natural 	1	n	0	0        	 	0.0	0	77.4396603999194	77.5396463000216	0.0999859001021832
174420	100	127	stimuli/nonmovNat/crystal/nmn_crystal09.jpg      	1	2	1	nmn_crystal09.jpg    	nonmovNat	5	crystal   	10	crystal09   	108	not_alive	0	still	0	natural 	1	n	0	0        	 	0.0	0	77.5896697998978	77.689665599959	0.0999958000611514
174570	100	128	stimuli/plant2/moss/plant_moss08.jpg             	1	2	1	plant_moss08.jpg     	plant2   	7	moss      	25	moss08      	257	alive    	1	still	0	natural 	1	n	0	0        	 	0.0	0	77.7396821000148	77.8396620000713	0.0999799000564963
174720	100	129	stimuli/animals/cat/animal_cat04.jpg             	1	2	1	animal_cat04.jpg     	animals  	0	cat       	6	cat04       	63	alive    	1	moves	1	natural 	1	n	0	0        	 	0.0	0	77.8896665000357	77.9896585999522	0.0999920999165624
174870	100	130	stimuli/movNat/fire/mn_fire09.jpg                	1	2	1	mn_fire09.jpg        	movNat   	3	fire      	15	fire09      	158	not_alive	0	moves	1	natural 	1	n	0	0        	 	0.0	0	78.0396684999578	78.1396663000342	0.0999978000763804
175020	100	131	stimuli/movArt/boat/ma_boat07.jpg                	1	2	1	ma_boat07.jpg        	movArt   	2	boat      	2	boat07      	26	not_alive	0	moves	1	artefact	0	n	0	0        	 	0.0	0	78.18969810009	78.2896666000597	0.099968499969691
175170	100	132	stimuli/plant2/palmtree/plant_palmtree04.jpg     	1	2	1	plant_palmtree04.jpg 	plant2   	7	palmtree  	27	palmtree04  	273	alive    	1	still	0	natural 	1	n	0	0        	 	0.0	0	78.3396773000713	78.4396714000031	0.0999940999317914
175320	100	133	stimuli/plant/flower/plant_flower02.jpg          	1	2	1	plant_flower02.jpg   	plant    	6	flower    	16	flower02    	161	alive    	1	still	0	natural 	1	n	0	0        	 	0.0	0	78.4896970998961	78.5896739999298	0.0999769000336528
175470	100	134	stimuli/plant/tree/plant_tree08.jpg              	1	2	1	plant_tree08.jpg     	plant    	6	tree      	35	tree08      	357	alive    	1	still	0	natural 	1	n	0	0        	 	0.0	0	78.639684200054	78.7396778000984	0.0999936000443995
175620	100	135	stimuli/movNat/river/mn_river08.jpg              	1	2	1	mn_river08.jpg       	movNat   	3	river     	29	river08     	297	not_alive	0	moves	1	natural 	1	n	0	0        	 	0.0	0	78.7896898000035	78.8896818999201	0.0999920999165624
175770	100	136	stimuli/plant2/fern/plant_fern02.jpg             	1	2	1	plant_fern02.jpg     	plant2   	7	fern      	14	fern02      	141	alive    	1	still	0	natural 	1	n	0	0        	 	0.0	0	78.9396933000535	79.0397026999854	0.100009399931878
175920	100	137	stimuli/plant/tree/plant_tree03.jpg              	1	2	1	plant_tree03.jpg     	plant    	6	tree      	35	tree03      	352	alive    	1	still	0	natural 	1	n	0	0        	 	0.0	0	79.0896984999999	79.1896915000398	0.0999930000398308
176070	100	138	stimuli/movArt/boat/ma_boat06.jpg                	1	2	1	ma_boat06.jpg        	movArt   	2	boat      	2	boat06      	25	not_alive	0	moves	1	artefact	0	n	0	0        	 	0.0	0	79.2396998999175	79.3396934999619	0.0999936000443995
176220	100	139	stimuli/nonmovArt/headphones/nma_headphones04.jpg	1	2	1	nma_headphones04.jpg 	nonmovArt	4	headphones	18	headphones04	183	not_alive	0	still	0	artefact	0	n	0	0        	 	0.0	0	79.3897234001197	79.4896984999068	0.099975099787116
176370	100	140	stimuli/animals/eagle/animal_eagle03.jpg         	1	2	1	animal_eagle03.jpg   	animals  	0	eagle     	13	eagle03     	132	alive    	1	moves	1	natural 	1	n	1	0        	 	0.0	0	79.5397095000371	79.63970290008	0.0999934000428766
176520	100	141	stimuli/animals/horse/animal_horse03.jpg         	1	2	1	animal_horse03.jpg   	animals  	0	horse     	20	horse03     	202	alive    	1	moves	1	natural 	1	n	0	0        	 	0.0	0	79.6897173000034	79.7897193001118	0.100002000108361
176670	100	142	stimuli/animals2/lemur/animal_lemur03.jpg        	1	2	1	animal_lemur03.jpg   	animals2 	1	lemur     	23	lemur03     	232	alive    	1	moves	1	natural 	1	n	0	1        	f	0.292201099917293	1	79.8397174999118	79.9397245000582	0.100007000146434
176820	100	143	stimuli/movNat/fire/mn_fire10.jpg                	1	2	1	mn_fire10.jpg        	movNat   	3	fire      	15	fire10      	159	not_alive	0	moves	1	natural 	1	n	0	0        	 	0.0	0	79.9897239999846	80.0897168999072	0.099992899922654
176970	100	144	stimuli/movNat/hotspring/mn_hotspring09.jpg      	1	2	1	mn_hotspring09.jpg   	movNat   	3	hotspring 	21	hotspring09 	218	not_alive	0	moves	1	natural 	1	n	0	0        	 	0.0	0	80.1397259000223	80.2397386000957	0.100012700073421
177120	100	145	stimuli/nonmovArt/lock/nma_lock10.jpg            	1	2	1	nma_lock10.jpg       	nonmovArt	4	lock      	24	lock10      	249	not_alive	0	still	0	artefact	0	n	0	0        	 	0.0	0	80.2897302000783	80.3897573999129	0.100027199834585
177270	100	146	stimuli/movNat/hotspring/mn_hotspring01.jpg      	1	2	1	mn_hotspring01.jpg   	movNat   	3	hotspring 	21	hotspring01 	210	not_alive	0	moves	1	natural 	1	n	0	0        	 	0.0	0	80.4397334000096	80.5397550999187	0.100021699909121
177420	100	147	stimuli/movNat/waterfall/mn_waterfall07.jpg      	1	2	1	mn_waterfall07.jpg   	movNat   	3	waterfall 	37	waterfall07 	376	not_alive	0	moves	1	natural 	1	n	0	0        	 	0.0	0	80.5897373999469	80.6897319999989	0.099994600052014
177570	100	148	stimuli/animals2/pigeon/animal_pigeon03.jpg      	1	2	1	animal_pigeon03.jpg  	animals2 	1	pigeon    	28	pigeon03    	282	alive    	1	moves	1	natural 	1	n	0	0        	 	0.0	0	80.7397437999025	80.8397363999393	0.099992600036785
177720	100	149	stimuli/plant/grass/plant_grass06.jpg            	1	2	1	plant_grass06.jpg    	plant    	6	grass     	17	grass06     	175	alive    	1	still	0	natural 	1	n	0	0        	 	0.0	0	80.8897472999524	80.989741400117	0.0999941001646221
177870	100	150	stimuli/movArt/car/ma_car09.jpg                  	1	2	1	ma_car09.jpg         	movArt   	2	car       	5	car09       	58	not_alive	0	moves	1	artefact	0	n	0	0        	 	0.0	0	81.0397485999856	81.1397575999145	0.100008999928832
178020	100	151	stimuli/animals2/whale/animal_whale09.jpg        	1	2	1	animal_whale09.jpg   	animals2 	1	whale     	39	whale09     	398	alive    	1	moves	1	natural 	1	n	0	0        	 	0.0	0	81.1897547999397	81.2897622000892	0.10000740014948
178170	100	152	stimuli/nonmovNat/crystal/nmn_crystal03.jpg      	1	2	1	nmn_crystal03.jpg    	nonmovNat	5	crystal   	10	crystal03   	102	not_alive	0	still	0	natural 	1	n	0	0        	 	0.0	0	81.3397562999744	81.4397505000234	0.0999942000489682
178320	100	153	stimuli/animals/dog/animal_dog06.jpg             	1	2	1	animal_dog06.jpg     	animals  	0	dog       	11	dog06       	115	alive    	1	moves	1	natural 	1	n	0	0        	 	0.0	0	81.4897598999087	81.5897544999607	0.099994600052014
178470	100	154	stimuli/nonmovNat/cliff/nmn_cliff03.jpg          	1	2	1	nmn_cliff03.jpg      	nonmovNat	5	cliff     	7	cliff03     	72	not_alive	0	still	0	natural 	1	n	0	0        	 	0.0	0	81.6397903999314	81.7397592000198	0.0999688000883907
178620	100	155	stimuli/plant2/moss/plant_moss06.jpg             	1	2	1	plant_moss06.jpg     	plant2   	7	moss      	25	moss06      	255	alive    	1	still	0	natural 	1	n	0	0        	 	0.0	0	81.7897733000573	81.8897659000941	0.099992600036785
178770	100	156	stimuli/animals/dolphin/animal_dolphin05.jpg     	1	2	1	animal_dolphin05.jpg 	animals  	0	dolphin   	12	dolphin05   	124	alive    	1	moves	1	natural 	1	n	0	0        	 	0.0	0	81.9397738999687	82.0397902999539	0.100016399985179
178920	100	157	stimuli/animals2/whale/animal_whale07.jpg        	1	2	1	animal_whale07.jpg   	animals2 	1	whale     	39	whale07     	396	alive    	1	moves	1	natural 	1	n	0	0        	 	0.0	0	82.0897782999091	82.1897702999413	0.0999920000322163
179070	100	158	stimuli/movArt/bus/ma_bus08.jpg                  	1	2	1	ma_bus08.jpg         	movArt   	2	bus       	3	bus08       	37	not_alive	0	moves	1	artefact	0	n	0	0        	 	0.0	0	82.2397837000899	82.3397747999988	0.0999910999089479
179220	100	159	stimuli/animals/dog/animal_dog06.jpg             	1	2	1	animal_dog06.jpg     	animals  	0	dog       	11	dog06       	115	alive    	1	moves	1	natural 	1	n	0	0        	 	0.0	0	82.3898140001111	82.4897785999347	0.0999645998235792
183153	100	160	stimuli/animals/dolphin/animal_dolphin02.jpg     	1	3	1	animal_dolphin02.jpg 	animals  	0	dolphin   	12	dolphin02   	121	alive    	1	moves	1	natural 	1	n	0	0        	 	0.0	0	86.3232334000058	86.4232361000031	0.100002699997276
183303	100	161	stimuli/nonmovNat/sand/nmn_sand01.jpg            	1	3	1	nmn_sand01.jpg       	nonmovNat	5	sand      	31	sand01      	310	not_alive	0	still	0	natural 	1	n	0	0        	 	0.0	0	86.4732339999173	86.5732213999145	0.0999873999971896
183453	100	162	stimuli/animals/horse/animal_horse09.jpg         	1	3	1	animal_horse09.jpg   	animals  	0	horse     	20	horse09     	208	alive    	1	moves	1	natural 	1	n	0	0        	 	0.0	0	86.623231699923	86.7232230999507	0.0999914000276476
183603	100	163	stimuli/movNat/hotspring/mn_hotspring09.jpg      	1	3	1	mn_hotspring09.jpg   	movNat   	3	hotspring 	21	hotspring09 	218	not_alive	0	moves	1	natural 	1	n	0	0        	 	0.0	0	86.7732563999016	86.8732280998957	0.0999716999940574
183753	100	164	stimuli/animals2/bee/animal_bee07.jpg            	1	3	1	animal_bee07.jpg     	animals2 	1	bee       	0	bee07       	6	alive    	1	moves	1	natural 	1	n	0	0        	 	0.0	0	86.9232519001234	87.0232335999608	0.0999816998373717
183903	100	165	stimuli/plant2/fern/plant_fern04.jpg             	1	3	1	plant_fern04.jpg     	plant2   	7	fern      	14	fern04      	143	alive    	1	still	0	natural 	1	n	0	0        	 	0.0	0	87.0732436999679	87.173235299997	0.0999916000291705
184053	100	166	stimuli/plant/cactus/plant_cactus07.jpg          	1	3	1	plant_cactus07.jpg   	plant    	6	cactus    	4	cactus07    	46	alive    	1	still	0	natural 	1	n	0	0        	 	0.0	0	87.2232572999783	87.3232442000881	0.0999869001097977
184203	100	167	stimuli/movArt/car/ma_car02.jpg                  	1	3	1	ma_car02.jpg         	movArt   	2	car       	5	car02       	51	not_alive	0	moves	1	artefact	0	n	0	0        	 	0.0	0	87.3732525000814	87.4732447999995	0.0999922999180853
184353	100	168	stimuli/plant/cactus/plant_cactus08.jpg          	1	3	1	plant_cactus08.jpg   	plant    	6	cactus    	4	cactus08    	47	alive    	1	still	0	natural 	1	n	0	0        	 	0.0	0	87.523269199999	87.6232481000479	0.0999789000488818
184503	100	169	stimuli/plant/vine/plant_vine03.jpg              	1	3	1	plant_vine03.jpg     	plant    	6	vine      	36	vine03      	362	alive    	1	still	0	natural 	1	n	0	0        	 	0.0	0	87.6732677000109	87.7732510000933	0.0999833000823855
184653	100	170	stimuli/nonmovNat/crystal/nmn_crystal05.jpg      	1	3	1	nmn_crystal05.jpg    	nonmovNat	5	crystal   	10	crystal05   	104	not_alive	0	still	0	natural 	1	n	0	0        	 	0.0	0	87.8232650000136	87.9232568999287	0.0999918999150395
184803	100	171	stimuli/animals/dog/animal_dog08.jpg             	1	3	1	animal_dog08.jpg     	animals  	0	dog       	11	dog08       	117	alive    	1	moves	1	natural 	1	n	0	0        	 	0.0	0	87.9732661999296	88.0732619001064	0.0999957001768053
184953	100	172	stimuli/plant/flower/plant_flower10.jpg          	1	3	1	plant_flower10.jpg   	plant    	6	flower    	16	flower10    	169	alive    	1	still	0	natural 	1	n	0	0        	 	0.0	0	88.1232708999887	88.2232794000302	0.10000850004144
185104	100	173	stimuli/nonmovArt/lock/nma_lock08.jpg            	1	3	1	nma_lock08.jpg       	nonmovArt	4	lock      	24	lock08      	247	not_alive	0	still	0	artefact	0	n	0	0        	 	0.0	0	88.2732943000738	88.3732670999598	0.099972799886018
185254	100	174	stimuli/movArt/train/ma_train07.jpg              	1	3	1	ma_train07.jpg       	movArt   	2	train     	34	train07     	346	not_alive	0	moves	1	artefact	0	n	0	0        	 	0.0	0	88.4232795001008	88.523273000028	0.0999934999272227
185404	100	175	stimuli/nonmovNat/sand/nmn_sand03.jpg            	1	3	1	nmn_sand03.jpg       	nonmovNat	5	sand      	31	sand03      	312	not_alive	0	still	0	natural 	1	n	0	0        	 	0.0	0	88.5732835999224	88.6732761999592	0.099992600036785
185554	100	176	stimuli/nonmovArt/headphones/nma_headphones04.jpg	1	3	1	nma_headphones04.jpg 	nonmovArt	4	headphones	18	headphones04	183	not_alive	0	still	0	artefact	0	n	0	0        	 	0.0	0	88.7232874000911	88.8232793000061	0.0999918999150395
185704	100	177	stimuli/movArt/train/ma_train10.jpg              	1	3	1	ma_train10.jpg       	movArt   	2	train     	34	train10     	349	not_alive	0	moves	1	artefact	0	n	0	0        	 	0.0	0	88.8732918000314	88.9733021000866	0.100010300055146
185854	100	178	stimuli/plant2/lemontree/plant_lemontree05.jpg   	1	3	1	plant_lemontree05.jpg	plant2   	7	lemontree 	22	lemontree05 	224	alive    	1	still	0	natural 	1	n	0	0        	 	0.0	0	89.0232949000783	89.1233141000848	0.1000192000065
186004	100	179	stimuli/movNat/waves/mn_waves09.jpg              	1	3	1	mn_waves09.jpg       	movNat   	3	waves     	38	waves09     	388	not_alive	0	moves	1	natural 	1	n	0	0        	 	0.0	0	89.1733015999198	89.2732911000494	0.0999895001295954
186154	100	180	stimuli/animals/eagle/animal_eagle01.jpg         	1	3	1	animal_eagle01.jpg   	animals  	0	eagle     	13	eagle01     	130	alive    	1	moves	1	natural 	1	n	0	0        	 	0.0	0	89.3233030999545	89.4232966999989	0.0999936000443995
186304	100	181	stimuli/plant/grass/plant_grass01.jpg            	1	3	1	plant_grass01.jpg    	plant    	6	grass     	17	grass01     	170	alive    	1	still	0	natural 	1	n	0	0        	 	0.0	0	89.4733064000029	89.5732992999256	0.099992899922654
186454	100	182	stimuli/nonmovArt/mug/nma_mug07.jpg              	1	3	1	nma_mug07.jpg        	nonmovArt	4	mug       	26	mug07       	266	not_alive	0	still	0	artefact	0	n	0	0        	 	0.0	0	89.6233105999418	89.7233061001171	0.0999955001752824
186604	100	183	stimuli/movNat/river/mn_river08.jpg              	1	3	1	mn_river08.jpg       	movNat   	3	river     	29	river08     	297	not_alive	0	moves	1	natural 	1	n	0	0        	 	0.0	0	89.7733160001226	89.8733387000393	0.100022699916735
186754	100	184	stimuli/plant/tree/plant_tree02.jpg              	1	3	1	plant_tree02.jpg     	plant    	6	tree      	35	tree02      	351	alive    	1	still	0	natural 	1	n	0	0        	 	0.0	0	89.9233262999915	90.0233179000206	0.0999916000291705
186904	100	185	stimuli/nonmovArt/clothespeg/nma_clothespeg04.jpg	1	3	1	nma_clothespeg04.jpg 	nonmovArt	4	clothespeg	8	clothespeg04	83	not_alive	0	still	0	artefact	0	n	0	0        	 	0.0	0	90.0733318000566	90.1733323999215	0.10000059986487
187054	100	186	stimuli/plant2/moss/plant_moss05.jpg             	1	3	1	plant_moss05.jpg     	plant2   	7	moss      	25	moss05      	254	alive    	1	still	0	natural 	1	n	0	0        	 	0.0	0	90.2233323999681	90.3233258998953	0.0999934999272227
187204	100	187	stimuli/animals2/whale/animal_whale01.jpg        	1	3	1	animal_whale01.jpg   	animals2 	1	whale     	39	whale01     	390	alive    	1	moves	1	natural 	1	n	0	0        	 	0.0	0	90.3733403000515	90.4733476999681	0.100007399916649
187354	100	188	stimuli/nonmovArt/bench/nma_bench07.jpg          	1	3	1	nma_bench07.jpg      	nonmovArt	4	bench     	1	bench07     	16	not_alive	0	still	0	artefact	0	n	0	0        	 	0.0	0	90.5233406999614	90.6233520000241	0.100011300062761
187504	100	189	stimuli/nonmovNat/rock/nmn_rock07.jpg            	1	3	1	nmn_rock07.jpg       	nonmovNat	5	rock      	30	rock07      	306	not_alive	0	still	0	natural 	1	n	0	0        	 	0.0	0	90.6733458000235	90.773335600039	0.0999898000154644
187654	100	190	stimuli/plant/vine/plant_vine03.jpg              	1	3	1	plant_vine03.jpg     	plant    	6	vine      	36	vine03      	362	alive    	1	still	0	natural 	1	n	0	0        	 	0.0	0	90.8233483000658	90.923345200019	0.099996899953112
187804	100	191	stimuli/nonmovArt/lock/nma_lock10.jpg            	1	3	1	nma_lock10.jpg       	nonmovArt	4	lock      	24	lock10      	249	not_alive	0	still	0	artefact	0	n	0	0        	 	0.0	0	90.9733692000154	91.0733463000506	0.0999771000351757
187954	100	192	stimuli/animals2/pigeon/animal_pigeon04.jpg      	1	3	1	animal_pigeon04.jpg  	animals2 	1	pigeon    	28	pigeon04    	283	alive    	1	moves	1	natural 	1	n	0	0        	 	0.0	0	91.1233568999451	91.223365199985	0.100008300039917
188104	100	193	stimuli/nonmovArt/mug/nma_mug05.jpg              	1	3	1	nma_mug05.jpg        	nonmovArt	4	mug       	26	mug05       	264	not_alive	0	still	0	artefact	0	n	0	0        	 	0.0	0	91.2733603001106	91.3733286999632	0.0999683998525143
188254	100	194	stimuli/movArt/car/ma_car06.jpg                  	1	3	1	ma_car06.jpg         	movArt   	2	car       	5	car06       	55	not_alive	0	moves	1	artefact	0	n	0	0        	 	0.0	0	91.4233645000495	91.5233581000939	0.0999936000443995
188404	100	195	stimuli/movArt/helicopter/ma_helicopter07.jpg    	1	3	1	ma_helicopter07.jpg  	movArt   	2	helicopter	19	helicopter07	196	not_alive	0	moves	1	artefact	0	n	0	0        	 	0.0	0	91.5733696001116	91.6733635000419	0.0999938999302685
188554	100	196	stimuli/plant2/clover/plant_clover07.jpg         	1	3	1	plant_clover07.jpg   	plant2   	7	clover    	9	clover07    	96	alive    	1	still	0	natural 	1	n	0	0        	 	0.0	0	91.7234014999121	91.8233614000492	0.099959900137037
188704	100	197	stimuli/movNat/waves/mn_waves04.jpg              	1	3	1	mn_waves04.jpg       	movNat   	3	waves     	38	waves04     	383	not_alive	0	moves	1	natural 	1	n	0	0        	 	0.0	0	91.8733717999421	91.9733766999561	0.100004900014028
188854	100	198	stimuli/movNat/waves/mn_waves05.jpg              	1	3	1	mn_waves05.jpg       	movNat   	3	waves     	38	waves05     	384	not_alive	0	moves	1	natural 	1	n	0	0        	 	0.0	0	92.0233762001153	92.1233675999101	0.099991399794817
189004	100	199	stimuli/plant2/clover/plant_clover07.jpg         	1	3	1	plant_clover07.jpg   	plant2   	7	clover    	9	clover07    	96	alive    	1	still	0	natural 	1	n	0	0        	 	0.0	0	92.1733782000374	92.2733720999677	0.0999938999302685
189154	100	200	stimuli/plant2/palmtree/plant_palmtree02.jpg     	1	3	1	plant_palmtree02.jpg 	plant2   	7	palmtree  	27	palmtree02  	271	alive    	1	still	0	natural 	1	n	0	0        	 	0.0	0	92.323398000095	92.4233921000268	0.0999940999317914
189304	100	201	stimuli/nonmovNat/rock/nmn_rock08.jpg            	1	3	1	nmn_rock08.jpg       	nonmovNat	5	rock      	30	rock08      	307	not_alive	0	still	0	natural 	1	n	1	0        	 	0.0	0	92.4734068000689	92.5733962999657	0.0999894998967648
189454	100	202	stimuli/movArt/helicopter/ma_helicopter10.jpg    	1	3	1	ma_helicopter10.jpg  	movArt   	2	helicopter	19	helicopter10	199	not_alive	0	moves	1	artefact	0	n	0	0        	 	0.0	0	92.6233906000853	92.7233835000079	0.099992899922654
189604	100	203	stimuli/animals2/pigeon/animal_pigeon03.jpg      	1	3	1	animal_pigeon03.jpg  	animals2 	1	pigeon    	28	pigeon03    	282	alive    	1	moves	1	natural 	1	n	0	0        	 	0.0	0	92.77339509991	92.8734079001006	0.100012800190598
189754	100	204	stimuli/nonmovNat/shell/nmn_shell03.jpg          	1	3	1	nmn_shell03.jpg      	nonmovNat	5	shell     	32	shell03     	322	not_alive	0	still	0	natural 	1	n	0	1        	f	0.44218619982712	1	92.9234027001076	93.0233921001199	0.0999894000124186
189904	100	205	stimuli/movNat/river/mn_river03.jpg              	1	3	1	mn_river03.jpg       	movNat   	3	river     	29	river03     	292	not_alive	0	moves	1	natural 	1	n	0	0        	 	0.0	0	93.0734182999004	93.1734100999311	0.0999918000306934
190054	100	206	stimuli/plant/grass/plant_grass07.jpg            	1	3	1	plant_grass07.jpg    	plant    	6	grass     	17	grass07     	176	alive    	1	still	0	natural 	1	n	1	0        	 	0.0	0	93.2234197000507	93.3233994001057	0.0999797000549734
190204	100	207	stimuli/plant2/clover/plant_clover08.jpg         	1	3	1	plant_clover08.jpg   	plant2   	7	clover    	9	clover08    	97	alive    	1	still	0	natural 	1	n	0	0        	 	0.0	0	93.3734101001173	93.4734038999304	0.0999937998130918
190354	100	208	stimuli/movNat/waterfall/mn_waterfall06.jpg      	1	3	1	mn_waterfall06.jpg   	movNat   	3	waterfall 	37	waterfall06 	375	not_alive	0	moves	1	natural 	1	n	0	0        	 	0.0	0	93.5234149999451	93.6234228000976	0.100007800152525
190504	100	209	stimuli/animals2/tiger/animal_tiger04.jpg        	1	3	1	animal_tiger04.jpg   	animals2 	1	tiger     	33	tiger04     	333	alive    	1	moves	1	natural 	1	n	0	1        	f	0.54199539986439	1	93.6734356998931	93.7734131999314	0.0999775000382215
190654	100	210	stimuli/animals/cat/animal_cat06.jpg             	1	3	1	animal_cat06.jpg     	animals  	0	cat       	6	cat06       	65	alive    	1	moves	1	natural 	1	n	0	0        	 	0.0	0	93.8234280000906	93.9234162000939	0.0999882000032812
190804	100	211	stimuli/nonmovNat/rock/nmn_rock02.jpg            	1	3	1	nmn_rock02.jpg       	nonmovNat	5	rock      	30	rock02      	301	not_alive	0	still	0	natural 	1	n	0	0        	 	0.0	0	93.9734263999853	94.0734200999141	0.0999936999287456
190954	100	212	stimuli/animals/eagle/animal_eagle07.jpg         	1	3	1	animal_eagle07.jpg   	animals  	0	eagle     	13	eagle07     	136	alive    	1	moves	1	natural 	1	n	0	0        	 	0.0	0	94.1234311000444	94.2234269999899	0.0999958999454975
191104	100	213	stimuli/animals2/tiger/animal_tiger10.jpg        	1	3	1	animal_tiger10.jpg   	animals2 	1	tiger     	33	tiger10     	339	alive    	1	moves	1	natural 	1	n	0	0        	 	0.0	0	94.2734352000989	94.3734416000079	0.100006399909034
191254	100	214	stimuli/movArt/helicopter/ma_helicopter10.jpg    	1	3	1	ma_helicopter10.jpg  	movArt   	2	helicopter	19	helicopter10	199	not_alive	0	moves	1	artefact	0	n	0	0        	 	0.0	0	94.4234408000484	94.5234312000684	0.0999904000200331
191404	100	215	stimuli/movArt/train/ma_train01.jpg              	1	3	1	ma_train01.jpg       	movArt   	2	train     	34	train01     	340	not_alive	0	moves	1	artefact	0	n	0	0        	 	0.0	0	94.5734548999462	94.6734341001138	0.0999792001675814
191554	100	216	stimuli/nonmovArt/bench/nma_bench01.jpg          	1	3	1	nma_bench01.jpg      	nonmovArt	4	bench     	1	bench01     	10	not_alive	0	still	0	artefact	0	n	0	0        	 	0.0	0	94.7234489000402	94.8234413999598	0.0999924999196082
191704	100	217	stimuli/animals/dolphin/animal_dolphin07.jpg     	1	3	1	animal_dolphin07.jpg 	animals  	0	dolphin   	12	dolphin07   	126	alive    	1	moves	1	natural 	1	n	0	0        	 	0.0	0	94.873451200081	94.9734437000006	0.0999924999196082
191854	100	218	stimuli/movArt/bus/ma_bus03.jpg                  	1	3	1	ma_bus03.jpg         	movArt   	2	bus       	3	bus03       	32	not_alive	0	moves	1	artefact	0	n	0	0        	 	0.0	0	95.0234544000123	95.123466799967	0.100012399954721
192004	100	219	stimuli/plant/cactus/plant_cactus10.jpg          	1	3	1	plant_cactus10.jpg   	plant    	6	cactus    	4	cactus10    	49	alive    	1	still	0	natural 	1	n	0	0        	 	0.0	0	95.1734591999557	95.2734532000031	0.0999940000474453
192154	100	220	stimuli/nonmovArt/headphones/nma_headphones04.jpg	1	3	1	nma_headphones04.jpg 	nonmovArt	4	headphones	18	headphones04	183	not_alive	0	still	0	artefact	0	n	1	0        	 	0.0	0	95.3234637998976	95.4234873999376	0.100023600040004
192304	100	221	stimuli/movArt/boat/ma_boat02.jpg                	1	3	1	ma_boat02.jpg        	movArt   	2	boat      	2	boat02      	21	not_alive	0	moves	1	artefact	0	n	0	0        	 	0.0	0	95.4734658000525	95.5734798000194	0.100013999966905
192454	100	222	stimuli/nonmovArt/clothespeg/nma_clothespeg10.jpg	1	3	1	nma_clothespeg10.jpg 	nonmovArt	4	clothespeg	8	clothespeg10	89	not_alive	0	still	0	artefact	0	n	0	0        	 	0.0	0	95.6234885999002	95.7234632000327	0.0999746001325548
192604	100	223	stimuli/plant2/lemontree/plant_lemontree07.jpg   	1	3	1	plant_lemontree07.jpg	plant2   	7	lemontree 	22	lemontree07 	226	alive    	1	still	0	natural 	1	n	0	1        	f	0.442220500204712	1	95.7734751999378	95.8734671000857	0.0999919001478702
192754	100	224	stimuli/nonmovArt/clothespeg/nma_clothespeg02.jpg	1	3	1	nma_clothespeg02.jpg 	nonmovArt	4	clothespeg	8	clothespeg02	81	not_alive	0	still	0	artefact	0	n	0	0        	 	0.0	0	95.9234778000973	96.0234874000307	0.100009599933401
192904	100	225	stimuli/nonmovNat/sand/nmn_sand09.jpg            	1	3	1	nmn_sand09.jpg       	nonmovNat	5	sand      	31	sand09      	318	not_alive	0	still	0	natural 	1	n	0	0        	 	0.0	0	96.0734840999357	96.1735020999331	0.100017999997362
193054	100	226	stimuli/nonmovNat/cliff/nmn_cliff10.jpg          	1	3	1	nmn_cliff10.jpg      	nonmovNat	5	cliff     	7	cliff10     	79	not_alive	0	still	0	natural 	1	n	0	0        	 	0.0	0	96.2234871999826	96.323480400024	0.0999932000413537
193204	100	227	stimuli/movNat/waterfall/mn_waterfall07.jpg      	1	3	1	mn_waterfall07.jpg   	movNat   	3	waterfall 	37	waterfall07 	376	not_alive	0	moves	1	natural 	1	n	0	0        	 	0.0	0	96.3734903999139	96.4734821999446	0.0999918000306934
193354	100	228	stimuli/animals2/tiger/animal_tiger02.jpg        	1	3	1	animal_tiger02.jpg   	animals2 	1	tiger     	33	tiger02     	331	alive    	1	moves	1	natural 	1	n	0	0        	 	0.0	0	96.5234944999684	96.6234864001162	0.0999919001478702
193504	100	229	stimuli/nonmovArt/bench/nma_bench09.jpg          	1	3	1	nma_bench09.jpg      	nonmovArt	4	bench     	1	bench09     	18	not_alive	0	still	0	artefact	0	n	0	0        	 	0.0	0	96.673499800032	96.7735154000111	0.100015599979088
193654	100	230	stimuli/nonmovNat/shell/nmn_shell06.jpg          	1	3	1	nmn_shell06.jpg      	nonmovNat	5	shell     	32	shell06     	325	not_alive	0	still	0	natural 	1	n	0	0        	 	0.0	0	96.8235224999953	96.9235090001021	0.0999865001067519
193804	100	231	stimuli/plant2/lemontree/plant_lemontree01.jpg   	1	3	1	plant_lemontree01.jpg	plant2   	7	lemontree 	22	lemontree01 	220	alive    	1	still	0	natural 	1	n	0	0        	 	0.0	0	96.973505999893	97.0735188999679	0.100012900074944
193954	100	232	stimuli/plant/vine/plant_vine06.jpg              	1	3	1	plant_vine06.jpg     	plant    	6	vine      	36	vine06      	365	alive    	1	still	0	natural 	1	n	0	0        	 	0.0	0	97.1235092999414	97.2235032001044	0.0999939001630992
194104	100	233	stimuli/movArt/bus/ma_bus10.jpg                  	1	3	1	ma_bus10.jpg         	movArt   	2	bus       	3	bus10       	39	not_alive	0	moves	1	artefact	0	n	0	0        	 	0.0	0	97.2735506999307	97.3735100000631	0.0999593001324683
194254	100	234	stimuli/plant2/fern/plant_fern02.jpg             	1	3	1	plant_fern02.jpg     	plant2   	7	fern      	14	fern02      	141	alive    	1	still	0	natural 	1	n	0	0        	 	0.0	0	97.4235187999438	97.5235371000599	0.100018300116062
194404	100	235	stimuli/animals2/lemur/animal_lemur05.jpg        	1	3	1	animal_lemur05.jpg   	animals2 	1	lemur     	23	lemur05     	234	alive    	1	moves	1	natural 	1	n	0	0        	 	0.0	0	97.5735236001201	97.6735159999225	0.0999923998024315
194554	100	236	stimuli/plant2/palmtree/plant_palmtree02.jpg     	1	3	1	plant_palmtree02.jpg 	plant2   	7	palmtree  	27	palmtree02  	271	alive    	1	still	0	natural 	1	n	0	0        	 	0.0	0	97.7235260000452	97.8235383001156	0.100012300070375
194704	100	237	stimuli/plant/flower/plant_flower09.jpg          	1	3	1	plant_flower09.jpg   	plant    	6	flower    	16	flower09    	168	alive    	1	still	0	natural 	1	n	0	0        	 	0.0	0	97.8735464001074	97.9735236999113	0.0999772998038679
194854	100	238	stimuli/animals/horse/animal_horse07.jpg         	1	3	1	animal_horse07.jpg   	animals  	0	horse     	20	horse07     	206	alive    	1	moves	1	natural 	1	n	0	0        	 	0.0	0	98.0235621999018	98.123528999975	0.0999668000731617
195004	100	239	stimuli/animals2/bee/animal_bee06.jpg            	1	3	1	animal_bee06.jpg     	animals2 	1	bee       	0	bee06       	5	alive    	1	moves	1	natural 	1	n	0	0        	 	0.0	0	98.1735388000962	98.2735323000234	0.0999934999272227
199087	100	240	stimuli/plant2/lemontree/plant_lemontree06.jpg   	1	4	1	plant_lemontree06.jpg	plant2   	7	lemontree 	22	lemontree06 	225	alive    	1	still	0	natural 	1	n	0	0        	 	0.0	0	102.25699090003	102.356983199948	0.0999922999180853
199237	100	241	stimuli/plant2/palmtree/plant_palmtree10.jpg     	1	4	1	plant_palmtree10.jpg 	plant2   	7	palmtree  	27	palmtree10  	279	alive    	1	still	0	natural 	1	n	0	0        	 	0.0	0	102.407000799896	102.506984699983	0.0999839000869542
199387	100	242	stimuli/animals2/tiger/animal_tiger02.jpg        	1	4	1	animal_tiger02.jpg   	animals2 	1	tiger     	33	tiger02     	331	alive    	1	moves	1	natural 	1	n	0	0        	 	0.0	0	102.557011700002	102.656987400027	0.0999757000245154
199537	100	243	stimuli/movArt/helicopter/ma_helicopter05.jpg    	1	4	1	ma_helicopter05.jpg  	movArt   	2	helicopter	19	helicopter05	194	not_alive	0	moves	1	artefact	0	n	0	0        	 	0.0	0	102.706996500026	102.806990599958	0.0999940999317914
199687	100	244	stimuli/plant2/fern/plant_fern10.jpg             	1	4	1	plant_fern10.jpg     	plant2   	7	fern      	14	fern10      	149	alive    	1	still	0	natural 	1	n	0	0        	 	0.0	0	102.857002800098	102.956989800092	0.0999869999941438
199837	100	245	stimuli/plant/grass/plant_grass02.jpg            	1	4	1	plant_grass02.jpg    	plant    	6	grass     	17	grass02     	171	alive    	1	still	0	natural 	1	n	0	0        	 	0.0	0	103.006999199977	103.106994600035	0.0999954000581056
199987	100	246	stimuli/movArt/helicopter/ma_helicopter06.jpg    	1	4	1	ma_helicopter06.jpg  	movArt   	2	helicopter	19	helicopter06	195	not_alive	0	moves	1	artefact	0	n	0	0        	 	0.0	0	103.157011100091	103.256998300087	0.0999871999956667
200137	100	247	stimuli/plant2/clover/plant_clover03.jpg         	1	4	1	plant_clover03.jpg   	plant2   	7	clover    	9	clover03    	92	alive    	1	still	0	natural 	1	n	0	0        	 	0.0	0	103.307007200085	103.407000799896	0.0999935998115689
200287	100	248	stimuli/movArt/helicopter/ma_helicopter03.jpg    	1	4	1	ma_helicopter03.jpg  	movArt   	2	helicopter	19	helicopter03	192	not_alive	0	moves	1	artefact	0	n	0	0        	 	0.0	0	103.457011400023	103.557002499932	0.0999910999089479
200437	100	249	stimuli/animals/dog/animal_dog07.jpg             	1	4	1	animal_dog07.jpg     	animals  	0	dog       	11	dog07       	116	alive    	1	moves	1	natural 	1	n	0	0        	 	0.0	0	103.607017700095	103.707007900113	0.0999902000185102
200587	100	250	stimuli/nonmovArt/clothespeg/nma_clothespeg06.jpg	1	4	1	nma_clothespeg06.jpg 	nonmovArt	4	clothespeg	8	clothespeg06	85	not_alive	0	still	0	artefact	0	n	0	0        	 	0.0	0	103.757018799894	103.857027499937	0.100008700042963
200737	100	251	stimuli/animals/dog/animal_dog08.jpg             	1	4	1	animal_dog08.jpg     	animals  	0	dog       	11	dog08       	117	alive    	1	moves	1	natural 	1	n	0	0        	 	0.0	0	103.907022200059	104.007015800104	0.0999936000443995
200887	100	252	stimuli/animals2/pigeon/animal_pigeon05.jpg      	1	4	1	animal_pigeon05.jpg  	animals2 	1	pigeon    	28	pigeon05    	284	alive    	1	moves	1	natural 	1	n	0	0        	 	0.0	0	104.057046199916	104.157023699954	0.0999775000382215
201037	100	253	stimuli/movNat/river/mn_river03.jpg              	1	4	1	mn_river03.jpg       	movNat   	3	river     	29	river03     	292	not_alive	0	moves	1	natural 	1	n	0	0        	 	0.0	0	104.207031399943	104.307025599992	0.0999942000489682
201187	100	254	stimuli/animals2/lemur/animal_lemur02.jpg        	1	4	1	animal_lemur02.jpg   	animals2 	1	lemur     	23	lemur02     	231	alive    	1	moves	1	natural 	1	n	0	0        	 	0.0	0	104.357034600107	104.457030300051	0.0999956999439746
201337	100	255	stimuli/nonmovNat/rock/nmn_rock05.jpg            	1	4	1	nmn_rock05.jpg       	nonmovNat	5	rock      	30	rock05      	304	not_alive	0	still	0	natural 	1	n	0	0        	 	0.0	0	104.507038499927	104.60703240009	0.0999939001630992
201487	100	256	stimuli/nonmovArt/mug/nma_mug04.jpg              	1	4	1	nma_mug04.jpg        	nonmovArt	4	mug       	26	mug04       	263	not_alive	0	still	0	artefact	0	n	0	0        	 	0.0	0	104.657044700114	104.757080399897	0.100035699782893
201637	100	257	stimuli/nonmovNat/shell/nmn_shell02.jpg          	1	4	1	nmn_shell02.jpg      	nonmovNat	5	shell     	32	shell02     	321	not_alive	0	still	0	natural 	1	n	0	0        	 	0.0	0	104.80704539991	104.907040500082	0.0999951001722366
201787	100	258	stimuli/nonmovArt/lock/nma_lock02.jpg            	1	4	1	nma_lock02.jpg       	nonmovArt	4	lock      	24	lock02      	241	not_alive	0	still	0	artefact	0	n	0	0        	 	0.0	0	104.957050400088	105.057044399902	0.0999939998146146
201937	100	259	stimuli/animals2/lemur/animal_lemur09.jpg        	1	4	1	animal_lemur09.jpg   	animals2 	1	lemur     	23	lemur09     	238	alive    	1	moves	1	natural 	1	n	0	0        	 	0.0	0	105.10705640004	105.207049000077	0.099992600036785
202087	100	260	stimuli/movNat/fire/mn_fire07.jpg                	1	4	1	mn_fire07.jpg        	movNat   	3	fire      	15	fire07      	156	not_alive	0	moves	1	natural 	1	n	0	0        	 	0.0	0	105.257059799973	105.357053499902	0.0999936999287456
202237	100	261	stimuli/movNat/waterfall/mn_waterfall10.jpg      	1	4	1	mn_waterfall10.jpg   	movNat   	3	waterfall 	37	waterfall10 	379	not_alive	0	moves	1	natural 	1	n	0	0        	 	0.0	0	105.407083099941	105.507087799953	0.100004700012505
202387	100	262	stimuli/animals/eagle/animal_eagle04.jpg         	1	4	1	animal_eagle04.jpg   	animals  	0	eagle     	13	eagle04     	133	alive    	1	moves	1	natural 	1	n	0	0        	 	0.0	0	105.557067699963	105.657061599893	0.0999938999302685
202537	100	263	stimuli/animals2/lemur/animal_lemur06.jpg        	1	4	1	animal_lemur06.jpg   	animals2 	1	lemur     	23	lemur06     	235	alive    	1	moves	1	natural 	1	n	0	0        	 	0.0	0	105.707071499899	105.80706329993	0.0999918000306934
202687	100	264	stimuli/animals2/pigeon/animal_pigeon10.jpg      	1	4	1	animal_pigeon10.jpg  	animals2 	1	pigeon    	28	pigeon10    	289	alive    	1	moves	1	natural 	1	n	1	0        	 	0.0	0	105.857074700063	105.957067100098	0.0999924000352621
202837	100	265	stimuli/nonmovNat/crystal/nmn_crystal04.jpg      	1	4	1	nmn_crystal04.jpg    	nonmovNat	5	crystal   	10	crystal04   	103	not_alive	0	still	0	natural 	1	n	0	0        	 	0.0	0	106.007078400115	106.107088400051	0.100009999936447
202987	100	266	stimuli/nonmovNat/cliff/nmn_cliff04.jpg          	1	4	1	nmn_cliff04.jpg      	nonmovNat	5	cliff     	7	cliff04     	73	not_alive	0	still	0	natural 	1	n	0	0        	 	0.0	0	106.157103900099	106.257091700099	0.0999878000002354
203137	100	267	stimuli/plant2/clover/plant_clover02.jpg         	1	4	1	plant_clover02.jpg   	plant2   	7	clover    	9	clover02    	91	alive    	1	still	0	natural 	1	n	0	1        	f	0.541993899969384	1	106.307088000001	106.407080000034	0.0999920000322163
203287	100	268	stimuli/plant2/palmtree/plant_palmtree08.jpg     	1	4	1	plant_palmtree08.jpg 	plant2   	7	palmtree  	27	palmtree08  	277	alive    	1	still	0	natural 	1	n	0	0        	 	0.0	0	106.457090300042	106.557085100096	0.0999948000535369
203437	100	269	stimuli/animals/cat/animal_cat01.jpg             	1	4	1	animal_cat01.jpg     	animals  	0	cat       	6	cat01       	60	alive    	1	moves	1	natural 	1	n	0	0        	 	0.0	0	106.60711709992	106.707101499895	0.0999843999743462
203587	100	270	stimuli/animals/cat/animal_cat07.jpg             	1	4	1	animal_cat07.jpg     	animals  	0	cat       	6	cat07       	66	alive    	1	moves	1	natural 	1	n	0	0        	 	0.0	0	106.757100499934	106.85710490006	0.100004400126636
203737	100	271	stimuli/movArt/bus/ma_bus04.jpg                  	1	4	1	ma_bus04.jpg         	movArt   	2	bus       	3	bus04       	33	not_alive	0	moves	1	artefact	0	n	0	0        	 	0.0	0	106.90710219997	107.007100299932	0.0999980999622494
203887	100	272	stimuli/movNat/waves/mn_waves04.jpg              	1	4	1	mn_waves04.jpg       	movNat   	3	waves     	38	waves04     	383	not_alive	0	moves	1	natural 	1	n	0	0        	 	0.0	0	107.05710830004	107.157101399964	0.0999930999241769
204037	100	273	stimuli/nonmovNat/crystal/nmn_crystal06.jpg      	1	4	1	nmn_crystal06.jpg    	nonmovNat	5	crystal   	10	crystal06   	105	not_alive	0	still	0	natural 	1	n	0	0        	 	0.0	0	107.207111299969	107.30710830004	0.0999970000702888
204187	100	274	stimuli/plant/cactus/plant_cactus05.jpg          	1	4	1	plant_cactus05.jpg   	plant    	6	cactus    	4	cactus05    	44	alive    	1	still	0	natural 	1	n	0	0        	 	0.0	0	107.357159999898	107.45711060008	0.0999506001826376
204337	100	275	stimuli/animals/eagle/animal_eagle05.jpg         	1	4	1	animal_eagle05.jpg   	animals  	0	eagle     	13	eagle05     	134	alive    	1	moves	1	natural 	1	n	0	0        	 	0.0	0	107.507120100083	107.607117299922	0.099997199838981
204487	100	276	stimuli/animals2/whale/animal_whale03.jpg        	1	4	1	animal_whale03.jpg   	animals2 	1	whale     	39	whale03     	392	alive    	1	moves	1	natural 	1	n	0	0        	 	0.0	0	107.657122599892	107.757132600062	0.100010000169277
204637	100	277	stimuli/nonmovArt/clothespeg/nma_clothespeg05.jpg	1	4	1	nma_clothespeg05.jpg 	nonmovArt	4	clothespeg	8	clothespeg05	84	not_alive	0	still	0	artefact	0	n	0	0        	 	0.0	0	107.80712709995	107.907120800111	0.0999937001615763
204787	100	278	stimuli/movNat/river/mn_river05.jpg              	1	4	1	mn_river05.jpg       	movNat   	3	river     	29	river05     	294	not_alive	0	moves	1	natural 	1	n	0	0        	 	0.0	0	107.957161500119	108.057125600055	0.0999640999361873
204937	100	279	stimuli/movArt/car/ma_car05.jpg                  	1	4	1	ma_car05.jpg         	movArt   	2	car       	5	car05       	54	not_alive	0	moves	1	artefact	0	n	1	0        	 	0.0	0	108.10715029994	108.207143099979	0.0999928000383079
205087	100	280	stimuli/plant/grass/plant_grass07.jpg            	1	4	1	plant_grass07.jpg    	plant    	6	grass     	17	grass07     	176	alive    	1	still	0	natural 	1	n	0	0        	 	0.0	0	108.257140200119	108.357136500068	0.0999962999485433
205237	100	281	stimuli/animals2/tiger/animal_tiger02.jpg        	1	4	1	animal_tiger02.jpg   	animals2 	1	tiger     	33	tiger02     	331	alive    	1	moves	1	natural 	1	n	0	1        	f	0.391987100010738	1	108.40715120011	108.507144399919	0.0999931998085231
205387	100	282	stimuli/nonmovArt/headphones/nma_headphones10.jpg	1	4	1	nma_headphones10.jpg 	nonmovArt	4	headphones	18	headphones10	189	not_alive	0	still	0	artefact	0	n	0	0        	 	0.0	0	108.557151200017	108.657146099955	0.099994899937883
205537	100	283	stimuli/movArt/train/ma_train05.jpg              	1	4	1	ma_train05.jpg       	movArt   	2	train     	34	train05     	344	not_alive	0	moves	1	artefact	0	n	0	0        	 	0.0	0	108.707159500103	108.807152400026	0.099992899922654
205687	100	284	stimuli/plant2/moss/plant_moss06.jpg             	1	4	1	plant_moss06.jpg     	plant2   	7	moss      	25	moss06      	255	alive    	1	still	0	natural 	1	n	0	0        	 	0.0	0	108.857170700096	108.957148999907	0.0999782998114824
205837	100	285	stimuli/movNat/waterfall/mn_waterfall05.jpg      	1	4	1	mn_waterfall05.jpg   	movNat   	3	waterfall 	37	waterfall05 	374	not_alive	0	moves	1	natural 	1	n	0	0        	 	0.0	0	109.007159400033	109.107154200086	0.0999948000535369
205987	100	286	stimuli/plant/flower/plant_flower06.jpg          	1	4	1	plant_flower06.jpg   	plant    	6	flower    	16	flower06    	165	alive    	1	still	0	natural 	1	n	0	0        	 	0.0	0	109.157162199961	109.257155700121	0.0999935001600534
206137	100	287	stimuli/plant/flower/plant_flower07.jpg          	1	4	1	plant_flower07.jpg   	plant    	6	flower    	16	flower07    	166	alive    	1	still	0	natural 	1	n	0	0        	 	0.0	0	109.3071663999	109.407160599949	0.0999942000489682
206287	100	288	stimuli/plant/tree/plant_tree01.jpg              	1	4	1	plant_tree01.jpg     	plant    	6	tree      	35	tree01      	350	alive    	1	still	0	natural 	1	n	0	0        	 	0.0	0	109.457173800096	109.557189000072	0.100015199976042
206437	100	289	stimuli/plant/vine/plant_vine02.jpg              	1	4	1	plant_vine02.jpg     	plant    	6	vine      	36	vine02      	361	alive    	1	still	0	natural 	1	n	0	0        	 	0.0	0	109.60717480001	109.707166000037	0.0999912000261247
206587	100	290	stimuli/plant/tree/plant_tree07.jpg              	1	4	1	plant_tree07.jpg     	plant    	6	tree      	35	tree07      	356	alive    	1	still	0	natural 	1	n	1	0        	 	0.0	0	109.757197000086	109.857171700103	0.0999747000169009
206737	100	291	stimuli/nonmovNat/cliff/nmn_cliff07.jpg          	1	4	1	nmn_cliff07.jpg      	nonmovNat	5	cliff     	7	cliff07     	76	not_alive	0	still	0	natural 	1	n	0	0        	 	0.0	0	109.907184399897	110.007177599939	0.0999932000413537
206887	100	292	stimuli/animals2/whale/animal_whale04.jpg        	1	4	1	animal_whale04.jpg   	animals2 	1	whale     	39	whale04     	393	alive    	1	moves	1	natural 	1	n	0	1        	f	0.39197829994373	1	110.057186200051	110.157183200121	0.0999970000702888
207037	100	293	stimuli/plant2/palmtree/plant_palmtree09.jpg     	1	4	1	plant_palmtree09.jpg 	plant2   	7	palmtree  	27	palmtree09  	278	alive    	1	still	0	natural 	1	n	0	0        	 	0.0	0	110.207206899999	110.307197999908	0.0999910999089479
207187	100	294	stimuli/nonmovNat/rock/nmn_rock04.jpg            	1	4	1	nmn_rock04.jpg       	nonmovNat	5	rock      	30	rock04      	303	not_alive	0	still	0	natural 	1	n	0	0        	 	0.0	0	110.357194300042	110.457187599968	0.0999932999256998
207337	100	295	stimuli/movArt/boat/ma_boat02.jpg                	1	4	1	ma_boat02.jpg        	movArt   	2	boat      	2	boat02      	21	not_alive	0	moves	1	artefact	0	n	0	0        	 	0.0	0	110.507199499989	110.607209499925	0.100009999936447
207487	100	296	stimuli/plant/vine/plant_vine05.jpg              	1	4	1	plant_vine05.jpg     	plant    	6	vine      	36	vine05      	364	alive    	1	still	0	natural 	1	n	0	0        	 	0.0	0	110.65720580006	110.757200000109	0.0999942000489682
207637	100	297	stimuli/plant2/clover/plant_clover10.jpg         	1	4	1	plant_clover10.jpg   	plant2   	7	clover    	9	clover10    	99	alive    	1	still	0	natural 	1	n	0	0        	 	0.0	0	110.807207300095	110.907201099908	0.0999937998130918
207787	100	298	stimuli/plant/cactus/plant_cactus04.jpg          	1	4	1	plant_cactus04.jpg   	plant    	6	cactus    	4	cactus04    	43	alive    	1	still	0	natural 	1	n	0	0        	 	0.0	0	110.957210199907	111.057231100043	0.10002090013586
207937	100	299	stimuli/nonmovArt/lock/nma_lock01.jpg            	1	4	1	nma_lock01.jpg       	nonmovArt	4	lock      	24	lock01      	240	not_alive	0	still	0	artefact	0	n	0	0        	 	0.0	0	111.107238600031	111.207207700005	0.0999690999742597
208087	100	300	stimuli/animals2/tiger/animal_tiger10.jpg        	1	4	1	animal_tiger10.jpg   	animals2 	1	tiger     	33	tiger10     	339	alive    	1	moves	1	natural 	1	n	0	0        	 	0.0	0	111.257218899904	111.357212899951	0.0999940000474453
208237	100	301	stimuli/movArt/car/ma_car01.jpg                  	1	4	1	ma_car01.jpg         	movArt   	2	car       	5	car01       	50	not_alive	0	moves	1	artefact	0	n	0	0        	 	0.0	0	111.407225399977	111.507214300102	0.0999889001250267
208387	100	302	stimuli/animals/horse/animal_horse05.jpg         	1	4	1	animal_horse05.jpg   	animals  	0	horse     	20	horse05     	204	alive    	1	moves	1	natural 	1	n	1	0        	 	0.0	0	111.557227999903	111.657236899948	0.100008900044486
208537	100	303	stimuli/plant/grass/plant_grass08.jpg            	1	4	1	plant_grass08.jpg    	plant    	6	grass     	17	grass08     	177	alive    	1	still	0	natural 	1	n	0	0        	 	0.0	0	111.707249100087	111.807247899938	0.0999987998511642
208687	100	304	stimuli/movNat/fire/mn_fire07.jpg                	1	4	1	mn_fire07.jpg        	movNat   	3	fire      	15	fire07      	156	not_alive	0	moves	1	natural 	1	n	0	1        	f	0.292161000194028	1	111.857235200005	111.957228299929	0.0999930999241769
208837	100	305	stimuli/plant/vine/plant_vine06.jpg              	1	4	1	plant_vine06.jpg     	plant    	6	vine      	36	vine06      	365	alive    	1	still	0	natural 	1	n	0	0        	 	0.0	0	112.007265900029	112.107251199894	0.0999852998647839
208987	100	306	stimuli/plant2/lemontree/plant_lemontree09.jpg   	1	4	1	plant_lemontree09.jpg	plant2   	7	lemontree 	22	lemontree09 	228	alive    	1	still	0	natural 	1	n	0	0        	 	0.0	0	112.157263699919	112.257256699959	0.0999930000398308
209137	100	307	stimuli/plant2/fern/plant_fern09.jpg             	1	4	1	plant_fern09.jpg     	plant2   	7	fern      	14	fern09      	148	alive    	1	still	0	natural 	1	n	0	0        	 	0.0	0	112.307269900106	112.407259900123	0.0999900000169873
209287	100	308	stimuli/animals2/bee/animal_bee01.jpg            	1	4	1	animal_bee01.jpg     	animals2 	1	bee       	0	bee01       	0	alive    	1	moves	1	natural 	1	n	0	0        	 	0.0	0	112.457271199906	112.557275600033	0.100004400126636
209437	100	309	stimuli/plant/flower/plant_flower01.jpg          	1	4	1	plant_flower01.jpg   	plant    	6	flower    	16	flower01    	160	alive    	1	still	0	natural 	1	n	0	0        	 	0.0	0	112.607280900003	112.707266299985	0.0999853999819606
209587	100	310	stimuli/nonmovArt/mug/nma_mug09.jpg              	1	4	1	nma_mug09.jpg        	nonmovArt	4	mug       	26	mug09       	268	not_alive	0	still	0	artefact	0	n	0	0        	 	0.0	0	112.757294300012	112.857296899892	0.100002599880099
209737	100	311	stimuli/nonmovNat/shell/nmn_shell09.jpg          	1	4	1	nmn_shell09.jpg      	nonmovNat	5	shell     	32	shell09     	328	not_alive	0	still	0	natural 	1	n	0	0        	 	0.0	0	112.907265000045	113.007272399962	0.100007399916649
209887	100	312	stimuli/nonmovNat/shell/nmn_shell10.jpg          	1	4	1	nmn_shell10.jpg      	nonmovNat	5	shell     	32	shell10     	329	not_alive	0	still	0	natural 	1	n	0	0        	 	0.0	0	113.05728700012	113.157288999995	0.100001999875531
210037	100	313	stimuli/nonmovNat/crystal/nmn_crystal04.jpg      	1	4	1	nmn_crystal04.jpg    	nonmovNat	5	crystal   	10	crystal04   	103	not_alive	0	still	0	natural 	1	n	0	0        	 	0.0	0	113.207289099926	113.307315800106	0.100026700180024
210187	100	314	stimuli/movArt/bus/ma_bus03.jpg                  	1	4	1	ma_bus03.jpg         	movArt   	2	bus       	3	bus03       	32	not_alive	0	moves	1	artefact	0	n	0	0        	 	0.0	0	113.357297299895	113.457289600046	0.099992300150916
210337	100	315	stimuli/animals/dolphin/animal_dolphin09.jpg     	1	4	1	animal_dolphin09.jpg 	animals  	0	dolphin   	12	dolphin09   	128	alive    	1	moves	1	natural 	1	n	0	0        	 	0.0	0	113.50730190007	113.607289500069	0.0999875999987125
210487	100	316	stimuli/animals/eagle/animal_eagle02.jpg         	1	4	1	animal_eagle02.jpg   	animals  	0	eagle     	13	eagle02     	131	alive    	1	moves	1	natural 	1	n	0	0        	 	0.0	0	113.657288500108	113.757294399897	0.100005899788812
210637	100	317	stimuli/nonmovArt/bench/nma_bench08.jpg          	1	4	1	nma_bench08.jpg      	nonmovArt	4	bench     	1	bench08     	17	not_alive	0	still	0	artefact	0	n	0	0        	 	0.0	0	113.807317200117	113.907293000026	0.0999757999088615
210787	100	318	stimuli/nonmovArt/headphones/nma_headphones03.jpg	1	4	1	nma_headphones03.jpg 	nonmovArt	4	headphones	18	headphones03	182	not_alive	0	still	0	artefact	0	n	0	0        	 	0.0	0	113.957320899935	114.057311099954	0.0999902000185102
210937	100	319	stimuli/animals2/bee/animal_bee01.jpg            	1	4	1	animal_bee01.jpg     	animals2 	1	bee       	0	bee01       	0	alive    	1	moves	1	natural 	1	n	0	0        	 	0.0	0	114.107321300078	114.20730670006	0.0999853999819606
214954	100	320	stimuli/movArt/train/ma_train05.jpg              	1	5	1	ma_train05.jpg       	movArt   	2	train     	34	train05     	344	not_alive	0	moves	1	artefact	0	n	0	0        	 	0.0	0	118.124078700086	118.224065900082	0.0999871999956667
215104	100	321	stimuli/plant2/lemontree/plant_lemontree01.jpg   	1	5	1	plant_lemontree01.jpg	plant2   	7	lemontree 	22	lemontree01 	220	alive    	1	still	0	natural 	1	n	0	0        	 	0.0	0	118.274079499999	118.374082300113	0.100002800114453
215254	100	322	stimuli/plant/tree/plant_tree10.jpg              	1	5	1	plant_tree10.jpg     	plant    	6	tree      	35	tree10      	359	alive    	1	still	0	natural 	1	n	0	0        	 	0.0	0	118.424080699915	118.524086399935	0.10000570002012
215404	100	323	stimuli/movNat/waterfall/mn_waterfall05.jpg      	1	5	1	mn_waterfall05.jpg   	movNat   	3	waterfall 	37	waterfall05 	374	not_alive	0	moves	1	natural 	1	n	0	0        	 	0.0	0	118.574091699906	118.674080000026	0.099988300120458
215554	100	324	stimuli/animals/horse/animal_horse10.jpg         	1	5	1	animal_horse10.jpg   	animals  	0	horse     	20	horse10     	209	alive    	1	moves	1	natural 	1	n	0	0        	 	0.0	0	118.724101700122	118.824081900064	0.0999801999423653
215704	100	325	stimuli/nonmovArt/bench/nma_bench03.jpg          	1	5	1	nma_bench03.jpg      	nonmovArt	4	bench     	1	bench03     	12	not_alive	0	still	0	artefact	0	n	0	0        	 	0.0	0	118.874096099986	118.974085299997	0.0999892000108957
215854	100	326	stimuli/plant2/moss/plant_moss05.jpg             	1	5	1	plant_moss05.jpg     	plant2   	7	moss      	25	moss05      	254	alive    	1	still	0	natural 	1	n	0	0        	 	0.0	0	119.024095700122	119.124093499966	0.0999977998435497
216004	100	327	stimuli/plant2/moss/plant_moss05.jpg             	1	5	1	plant_moss05.jpg     	plant2   	7	moss      	25	moss05      	254	alive    	1	still	0	natural 	1	n	0	0        	 	0.0	0	119.174104500096	119.274108400103	0.100003900006413
216154	100	328	stimuli/animals2/pigeon/animal_pigeon08.jpg      	1	5	1	animal_pigeon08.jpg  	animals2 	1	pigeon    	28	pigeon08    	287	alive    	1	moves	1	natural 	1	n	0	0        	 	0.0	0	119.324115300085	119.424090600107	0.0999753000214696
216304	100	329	stimuli/nonmovArt/lock/nma_lock01.jpg            	1	5	1	nma_lock01.jpg       	nonmovArt	4	lock      	24	lock01      	240	not_alive	0	still	0	artefact	0	n	0	0        	 	0.0	0	119.474115299992	119.574094699929	0.0999793999362737
216454	100	330	stimuli/nonmovArt/bench/nma_bench09.jpg          	1	5	1	nma_bench09.jpg      	nonmovArt	4	bench     	1	bench09     	18	not_alive	0	still	0	artefact	0	n	0	0        	 	0.0	0	119.624107500073	119.724116200116	0.100008700042963
216604	100	331	stimuli/movArt/train/ma_train04.jpg              	1	5	1	ma_train04.jpg       	movArt   	2	train     	34	train04     	343	not_alive	0	moves	1	artefact	0	n	0	0        	 	0.0	0	119.774112199899	119.874106999952	0.0999948000535369
216754	100	332	stimuli/animals/dolphin/animal_dolphin06.jpg     	1	5	1	animal_dolphin06.jpg 	animals  	0	dolphin   	12	dolphin06   	125	alive    	1	moves	1	natural 	1	n	0	0        	 	0.0	0	119.924122800119	120.024127499899	0.100004699779674
216904	100	333	stimuli/movArt/boat/ma_boat09.jpg                	1	5	1	ma_boat09.jpg        	movArt   	2	boat      	2	boat09      	28	not_alive	0	moves	1	artefact	0	n	0	0        	 	0.0	0	120.074122800026	120.174156599911	0.100033799884841
217054	100	334	stimuli/animals/horse/animal_horse07.jpg         	1	5	1	animal_horse07.jpg   	animals  	0	horse     	20	horse07     	206	alive    	1	moves	1	natural 	1	n	0	0        	 	0.0	0	120.22412030003	120.324136900017	0.100016599986702
217204	100	335	stimuli/animals2/whale/animal_whale05.jpg        	1	5	1	animal_whale05.jpg   	animals2 	1	whale     	39	whale05     	394	alive    	1	moves	1	natural 	1	n	0	0        	 	0.0	0	120.374128299998	120.474142699968	0.10001439996995
217354	100	336	stimuli/movArt/bus/ma_bus04.jpg                  	1	5	1	ma_bus04.jpg         	movArt   	2	bus       	3	bus04       	33	not_alive	0	moves	1	artefact	0	n	0	0        	 	0.0	0	120.524139800109	120.624129400123	0.0999896000139415
217504	100	337	stimuli/nonmovNat/sand/nmn_sand05.jpg            	1	5	1	nmn_sand05.jpg       	nonmovNat	5	sand      	31	sand05      	314	not_alive	0	still	0	natural 	1	n	0	0        	 	0.0	0	120.674142899923	120.774160200031	0.100017300108448
217654	100	338	stimuli/nonmovNat/sand/nmn_sand06.jpg            	1	5	1	nmn_sand06.jpg       	nonmovNat	5	sand      	31	sand06      	315	not_alive	0	still	0	natural 	1	n	0	0        	 	0.0	0	120.82414390007	120.924165399978	0.100021499907598
217804	100	339	stimuli/animals/dolphin/animal_dolphin03.jpg     	1	5	1	animal_dolphin03.jpg 	animals  	0	dolphin   	12	dolphin03   	122	alive    	1	moves	1	natural 	1	n	0	0        	 	0.0	0	120.974145299988	121.074139100034	0.0999938000459224
217954	100	340	stimuli/movNat/waves/mn_waves01.jpg              	1	5	1	mn_waves01.jpg       	movNat   	3	waves     	38	waves01     	380	not_alive	0	moves	1	natural 	1	n	0	0        	 	0.0	0	121.124148600036	121.224141099956	0.0999924999196082
218104	100	341	stimuli/nonmovNat/cliff/nmn_cliff01.jpg          	1	5	1	nmn_cliff01.jpg      	nonmovNat	5	cliff     	7	cliff01     	70	not_alive	0	still	0	natural 	1	n	0	0        	 	0.0	0	121.274154300103	121.374145699898	0.099991399794817
218254	100	342	stimuli/animals2/bee/animal_bee08.jpg            	1	5	1	animal_bee08.jpg     	animals2 	1	bee       	0	bee08       	7	alive    	1	moves	1	natural 	1	n	0	0        	 	0.0	0	121.424154199893	121.524165499955	0.100011300062761
218404	100	343	stimuli/movArt/boat/ma_boat01.jpg                	1	5	1	ma_boat01.jpg        	movArt   	2	boat      	2	boat01      	20	not_alive	0	moves	1	artefact	0	n	0	0        	 	0.0	0	121.574158099946	121.674167300109	0.100009200163186
218554	100	344	stimuli/movNat/waves/mn_waves07.jpg              	1	5	1	mn_waves07.jpg       	movNat   	3	waves     	38	waves07     	386	not_alive	0	moves	1	natural 	1	n	0	0        	 	0.0	0	121.724164499901	121.824156299932	0.0999918000306934
218704	100	345	stimuli/movNat/hotspring/mn_hotspring03.jpg      	1	5	1	mn_hotspring03.jpg   	movNat   	3	hotspring 	21	hotspring03 	212	not_alive	0	moves	1	natural 	1	n	0	0        	 	0.0	0	121.874166399939	121.974162500119	0.0999961001798511
218854	100	346	stimuli/animals/dog/animal_dog03.jpg             	1	5	1	animal_dog03.jpg     	animals  	0	dog       	11	dog03       	112	alive    	1	moves	1	natural 	1	n	0	0        	 	0.0	0	122.024190000026	122.124166399939	0.0999763999134302
219004	100	347	stimuli/movNat/fire/mn_fire10.jpg                	1	5	1	mn_fire10.jpg        	movNat   	3	fire      	15	fire10      	159	not_alive	0	moves	1	natural 	1	n	0	0        	 	0.0	0	122.174176800065	122.274198499974	0.100021699909121
219154	100	348	stimuli/plant2/fern/plant_fern09.jpg             	1	5	1	plant_fern09.jpg     	plant2   	7	fern      	14	fern09      	148	alive    	1	still	0	natural 	1	n	0	0        	 	0.0	0	122.324178999988	122.424173299922	0.0999942999333143
219304	100	349	stimuli/movNat/river/mn_river10.jpg              	1	5	1	mn_river10.jpg       	movNat   	3	river     	29	river10     	299	not_alive	0	moves	1	natural 	1	n	0	0        	 	0.0	0	122.474173400085	122.574176199967	0.100002799881622
219454	100	350	stimuli/nonmovArt/headphones/nma_headphones08.jpg	1	5	1	nma_headphones08.jpg 	nonmovArt	4	headphones	18	headphones08	187	not_alive	0	still	0	artefact	0	n	0	0        	 	0.0	0	122.624219200108	122.724179999903	0.0999607997946441
219604	100	351	stimuli/movNat/hotspring/mn_hotspring01.jpg      	1	5	1	mn_hotspring01.jpg   	movNat   	3	hotspring 	21	hotspring01 	210	not_alive	0	moves	1	natural 	1	n	0	0        	 	0.0	0	122.774221400032	122.874187499983	0.0999660999514162
219754	100	352	stimuli/movNat/hotspring/mn_hotspring04.jpg      	1	5	1	mn_hotspring04.jpg   	movNat   	3	hotspring 	21	hotspring04 	213	not_alive	0	moves	1	natural 	1	n	0	0        	 	0.0	0	122.924206099939	123.024192000041	0.0999859001021832
219904	100	353	stimuli/nonmovArt/mug/nma_mug04.jpg              	1	5	1	nma_mug04.jpg        	nonmovArt	4	mug       	26	mug04       	263	not_alive	0	still	0	artefact	0	n	0	0        	 	0.0	0	123.074201199925	123.174207600066	0.100006400141865
220054	100	354	stimuli/nonmovArt/clothespeg/nma_clothespeg03.jpg	1	5	1	nma_clothespeg03.jpg 	nonmovArt	4	clothespeg	8	clothespeg03	82	not_alive	0	still	0	artefact	0	n	0	0        	 	0.0	0	123.224218900083	123.324198399903	0.0999794998206198
220204	100	355	stimuli/movArt/car/ma_car02.jpg                  	1	5	1	ma_car02.jpg         	movArt   	2	car       	5	car02       	51	not_alive	0	moves	1	artefact	0	n	0	0        	 	0.0	0	123.374235800002	123.474201200064	0.0999654000625014
220354	100	356	stimuli/animals/cat/animal_cat06.jpg             	1	5	1	animal_cat06.jpg     	animals  	0	cat       	6	cat06       	65	alive    	1	moves	1	natural 	1	n	0	0        	 	0.0	0	123.524224600056	123.624202199979	0.0999775999225676
220504	100	357	stimuli/plant/cactus/plant_cactus03.jpg          	1	5	1	plant_cactus03.jpg   	plant    	6	cactus    	4	cactus03    	42	alive    	1	still	0	natural 	1	n	0	0        	 	0.0	0	123.674215200124	123.77420799993	0.0999927998054773
220654	100	358	stimuli/nonmovNat/rock/nmn_rock01.jpg            	1	5	1	nmn_rock01.jpg       	nonmovNat	5	rock      	30	rock01      	300	not_alive	0	still	0	natural 	1	n	0	0        	 	0.0	0	123.824217000045	123.924215100007	0.0999980999622494
220804	100	359	stimuli/nonmovNat/sand/nmn_sand09.jpg            	1	5	1	nmn_sand09.jpg       	nonmovNat	5	sand      	31	sand09      	318	not_alive	0	still	0	natural 	1	n	0	0        	 	0.0	0	123.974223700119	124.074237399967	0.100013699848205
220954	100	360	stimuli/movArt/helicopter/ma_helicopter10.jpg    	1	5	1	ma_helicopter10.jpg  	movArt   	2	helicopter	19	helicopter10	199	not_alive	0	moves	1	artefact	0	n	1	0        	 	0.0	0	124.12424080004	124.224215799943	0.0999749999027699
221104	100	361	stimuli/nonmovArt/mug/nma_mug04.jpg              	1	5	1	nma_mug04.jpg        	nonmovArt	4	mug       	26	mug04       	263	not_alive	0	still	0	artefact	0	n	0	0        	 	0.0	0	124.274243100081	124.374242099933	0.0999989998526871
221254	100	362	stimuli/plant/cactus/plant_cactus06.jpg          	1	5	1	plant_cactus06.jpg   	plant    	6	cactus    	4	cactus06    	45	alive    	1	still	0	natural 	1	n	0	1        	f	0.292215399909764	1	124.424233200029	124.524229299976	0.0999960999470204
221404	100	363	stimuli/movNat/fire/mn_fire04.jpg                	1	5	1	mn_fire04.jpg        	movNat   	3	fire      	15	fire04      	153	not_alive	0	moves	1	natural 	1	n	0	0        	 	0.0	0	124.57424300001	124.674233000027	0.0999900000169873
221554	100	364	stimuli/nonmovArt/lock/nma_lock10.jpg            	1	5	1	nma_lock10.jpg       	nonmovArt	4	lock      	24	lock10      	249	not_alive	0	still	0	artefact	0	n	0	0        	 	0.0	0	124.724245599937	124.824234500062	0.0999889001250267
221704	100	365	stimuli/animals/dolphin/animal_dolphin01.jpg     	1	5	1	animal_dolphin01.jpg 	animals  	0	dolphin   	12	dolphin01   	120	alive    	1	moves	1	natural 	1	n	0	0        	 	0.0	0	124.874251400121	124.974240700016	0.0999892998952419
221854	100	366	stimuli/movArt/train/ma_train03.jpg              	1	5	1	ma_train03.jpg       	movArt   	2	train     	34	train03     	342	not_alive	0	moves	1	artefact	0	n	0	0        	 	0.0	0	125.024262400111	125.124244899955	0.0999824998434633
222004	100	367	stimuli/movNat/waves/mn_waves08.jpg              	1	5	1	mn_waves08.jpg       	movNat   	3	waves     	38	waves08     	387	not_alive	0	moves	1	natural 	1	n	0	0        	 	0.0	0	125.174257199978	125.274248200003	0.0999910000246018
222154	100	368	stimuli/movNat/river/mn_river02.jpg              	1	5	1	mn_river02.jpg       	movNat   	3	river     	29	river02     	291	not_alive	0	moves	1	natural 	1	n	0	0        	 	0.0	0	125.324275099905	125.424248900032	0.0999738001264632
222304	100	369	stimuli/movNat/hotspring/mn_hotspring06.jpg      	1	5	1	mn_hotspring06.jpg   	movNat   	3	hotspring 	21	hotspring06 	215	not_alive	0	moves	1	natural 	1	n	0	0        	 	0.0	0	125.474263600074	125.574255600106	0.0999920000322163
222454	100	370	stimuli/animals2/whale/animal_whale03.jpg        	1	5	1	animal_whale03.jpg   	animals2 	1	whale     	39	whale03     	392	alive    	1	moves	1	natural 	1	n	0	0        	 	0.0	0	125.62426479999	125.724285000004	0.100020200014114
222604	100	371	stimuli/plant2/palmtree/plant_palmtree07.jpg     	1	5	1	plant_palmtree07.jpg 	plant2   	7	palmtree  	27	palmtree07  	276	alive    	1	still	0	natural 	1	n	0	0        	 	0.0	0	125.774273399962	125.874265199993	0.0999918000306934
222754	100	372	stimuli/movArt/helicopter/ma_helicopter04.jpg    	1	5	1	ma_helicopter04.jpg  	movArt   	2	helicopter	19	helicopter04	193	not_alive	0	moves	1	artefact	0	n	0	0        	 	0.0	0	125.924278900027	126.024264000123	0.0999851000960916
222904	100	373	stimuli/nonmovNat/crystal/nmn_crystal03.jpg      	1	5	1	nmn_crystal03.jpg    	nonmovNat	5	crystal   	10	crystal03   	102	not_alive	0	still	0	natural 	1	n	0	0        	 	0.0	0	126.07427969994	126.174274400109	0.0999947001691908
223054	100	374	stimuli/nonmovArt/headphones/nma_headphones05.jpg	1	5	1	nma_headphones05.jpg 	nonmovArt	4	headphones	18	headphones05	184	not_alive	0	still	0	artefact	0	n	0	0        	 	0.0	0	126.224279100075	126.324276600033	0.0999974999576807
223204	100	375	stimuli/nonmovArt/mug/nma_mug02.jpg              	1	5	1	nma_mug02.jpg        	nonmovArt	4	mug       	26	mug02       	261	not_alive	0	still	0	artefact	0	n	0	0        	 	0.0	0	126.374289100058	126.474310500082	0.100021400023252
223354	100	376	stimuli/animals2/tiger/animal_tiger01.jpg        	1	5	1	animal_tiger01.jpg   	animals2 	1	tiger     	33	tiger01     	330	alive    	1	moves	1	natural 	1	n	0	0        	 	0.0	0	126.524307100102	126.624300299911	0.0999931998085231
223504	100	377	stimuli/movNat/waterfall/mn_waterfall02.jpg      	1	5	1	mn_waterfall02.jpg   	movNat   	3	waterfall 	37	waterfall02 	371	not_alive	0	moves	1	natural 	1	n	0	0        	 	0.0	0	126.674312900053	126.774287800072	0.0999749000184238
223654	100	378	stimuli/plant2/fern/plant_fern08.jpg             	1	5	1	plant_fern08.jpg     	plant2   	7	fern      	14	fern08      	147	alive    	1	still	0	natural 	1	n	0	0        	 	0.0	0	126.82429670007	126.924296299927	0.0999995998572558
223804	100	379	stimuli/animals2/bee/animal_bee05.jpg            	1	5	1	animal_bee05.jpg     	animals2 	1	bee       	0	bee05       	4	alive    	1	moves	1	natural 	1	n	0	0        	 	0.0	0	126.974302199902	127.074338899925	0.100036700023338
223954	100	380	stimuli/nonmovNat/sand/nmn_sand02.jpg            	1	5	1	nmn_sand02.jpg       	nonmovNat	5	sand      	31	sand02      	311	not_alive	0	still	0	natural 	1	n	0	0        	 	0.0	0	127.124308800092	127.224334599916	0.100025799823925
224104	100	381	stimuli/plant/grass/plant_grass09.jpg            	1	5	1	plant_grass09.jpg    	plant    	6	grass     	17	grass09     	178	alive    	1	still	0	natural 	1	n	0	0        	 	0.0	0	127.274312899914	127.374304200057	0.0999913001433015
224254	100	382	stimuli/animals/eagle/animal_eagle04.jpg         	1	5	1	animal_eagle04.jpg   	animals  	0	eagle     	13	eagle04     	133	alive    	1	moves	1	natural 	1	n	0	0        	 	0.0	0	127.424313100055	127.524309200002	0.0999960999470204
224404	100	383	stimuli/nonmovNat/shell/nmn_shell01.jpg          	1	5	1	nmn_shell01.jpg      	nonmovNat	5	shell     	32	shell01     	320	not_alive	0	still	0	natural 	1	n	0	0        	 	0.0	0	127.574320100015	127.674311900046	0.0999918000306934
224554	100	384	stimuli/movArt/bus/ma_bus06.jpg                  	1	5	1	ma_bus06.jpg         	movArt   	2	bus       	3	bus06       	35	not_alive	0	moves	1	artefact	0	n	1	0        	 	0.0	0	127.724326200085	127.824319100007	0.099992899922654
224704	100	385	stimuli/movArt/car/ma_car07.jpg                  	1	5	1	ma_car07.jpg         	movArt   	2	car       	5	car07       	56	not_alive	0	moves	1	artefact	0	n	0	0        	 	0.0	0	127.874327300116	127.974332700018	0.10000539990142
224854	100	386	stimuli/movNat/waterfall/mn_waterfall06.jpg      	1	5	1	mn_waterfall06.jpg   	movNat   	3	waterfall 	37	waterfall06 	375	not_alive	0	moves	1	natural 	1	n	0	1        	f	0.39200140000321	1	128.024329100037	128.124327199999	0.0999980999622494
225004	100	387	stimuli/plant2/moss/plant_moss02.jpg             	1	5	1	plant_moss02.jpg     	plant2   	7	moss      	25	moss02      	251	alive    	1	still	0	natural 	1	n	0	0        	 	0.0	0	128.174336600117	128.274330199929	0.0999935998115689
225155	100	388	stimuli/nonmovNat/crystal/nmn_crystal03.jpg      	1	5	1	nmn_crystal03.jpg    	nonmovNat	5	crystal   	10	crystal03   	102	not_alive	0	still	0	natural 	1	n	0	0        	 	0.0	0	128.324371000053	128.424329800066	0.0999588000122458
225304	100	389	stimuli/animals2/bee/animal_bee09.jpg            	1	5	1	animal_bee09.jpg     	animals2 	1	bee       	0	bee09       	8	alive    	1	moves	1	natural 	1	n	0	0        	 	0.0	0	128.47434700001	128.574347299989	0.100000299979001
225454	100	390	stimuli/movNat/river/mn_river06.jpg              	1	5	1	mn_river06.jpg       	movNat   	3	river     	29	river06     	295	not_alive	0	moves	1	natural 	1	n	0	0        	 	0.0	0	128.624344300013	128.724339300068	0.0999950000550598
225604	100	391	stimuli/animals/dog/animal_dog03.jpg             	1	5	1	animal_dog03.jpg     	animals  	0	dog       	11	dog03       	112	alive    	1	moves	1	natural 	1	n	0	0        	 	0.0	0	128.774352099979	128.874344900018	0.0999928000383079
225755	100	392	stimuli/nonmovNat/rock/nmn_rock10.jpg            	1	5	1	nmn_rock10.jpg       	nonmovNat	5	rock      	30	rock10      	309	not_alive	0	still	0	natural 	1	n	0	0        	 	0.0	0	128.924377100077	129.024344200036	0.0999670999590308
225905	100	393	stimuli/animals2/pigeon/animal_pigeon03.jpg      	1	5	1	animal_pigeon03.jpg  	animals2 	1	pigeon    	28	pigeon03    	282	alive    	1	moves	1	natural 	1	n	0	0        	 	0.0	0	129.074384599924	129.174351599999	0.0999670000746846
226054	100	394	stimuli/movArt/bus/ma_bus06.jpg                  	1	5	1	ma_bus06.jpg         	movArt   	2	bus       	3	bus06       	35	not_alive	0	moves	1	artefact	0	n	0	0        	 	0.0	0	129.224360400112	129.324357700069	0.0999972999561578
226205	100	395	stimuli/movNat/fire/mn_fire03.jpg                	1	5	1	mn_fire03.jpg        	movNat   	3	fire      	15	fire03      	152	not_alive	0	moves	1	natural 	1	n	0	0        	 	0.0	0	129.374367600074	129.474361900007	0.0999942999333143
226355	100	396	stimuli/plant/tree/plant_tree02.jpg              	1	5	1	plant_tree02.jpg     	plant    	6	tree      	35	tree02      	351	alive    	1	still	0	natural 	1	n	0	0        	 	0.0	0	129.524369599996	129.624361400027	0.0999918000306934
226505	100	397	stimuli/nonmovNat/rock/nmn_rock03.jpg            	1	5	1	nmn_rock03.jpg       	nonmovNat	5	rock      	30	rock03      	302	not_alive	0	still	0	natural 	1	n	0	0        	 	0.0	0	129.674395899987	129.774371000007	0.0999751000199467
226655	100	398	stimuli/animals/dolphin/animal_dolphin02.jpg     	1	5	1	animal_dolphin02.jpg 	animals  	0	dolphin   	12	dolphin02   	121	alive    	1	moves	1	natural 	1	n	0	0        	 	0.0	0	129.824389700079	129.924378700089	0.0999890000093728
226805	100	399	stimuli/nonmovArt/bench/nma_bench01.jpg          	1	5	1	nma_bench01.jpg      	nonmovArt	4	bench     	1	bench01     	10	not_alive	0	still	0	artefact	0	n	0	0        	 	0.0	0	129.974382699933	130.074378899997	0.0999962000641972
231021	100	400	stimuli/nonmovArt/headphones/nma_headphones06.jpg	1	6	1	nma_headphones06.jpg 	nonmovArt	4	headphones	18	headphones06	185	not_alive	0	still	0	artefact	0	n	0	0        	 	0.0	0	134.191199300112	134.291163699934	0.0999643998220563
231171	100	401	stimuli/animals2/whale/animal_whale02.jpg        	1	6	1	animal_whale02.jpg   	animals2 	1	whale     	39	whale02     	391	alive    	1	moves	1	natural 	1	n	0	0        	 	0.0	0	134.341175900074	134.441167199984	0.0999912999104708
231321	100	402	stimuli/movArt/bus/ma_bus06.jpg                  	1	6	1	ma_bus06.jpg         	movArt   	2	bus       	3	bus06       	35	not_alive	0	moves	1	artefact	0	n	0	0        	 	0.0	0	134.491179300006	134.591183400014	0.100004100007936
231471	100	403	stimuli/movNat/waves/mn_waves06.jpg              	1	6	1	mn_waves06.jpg       	movNat   	3	waves     	38	waves06     	385	not_alive	0	moves	1	natural 	1	n	0	0        	 	0.0	0	134.641185499961	134.741174600087	0.0999891001265496
231621	100	404	stimuli/movNat/hotspring/mn_hotspring04.jpg      	1	6	1	mn_hotspring04.jpg   	movNat   	3	hotspring 	21	hotspring04 	213	not_alive	0	moves	1	natural 	1	n	0	0        	 	0.0	0	134.791200000094	134.891175700119	0.0999757000245154
231771	100	405	stimuli/nonmovArt/lock/nma_lock03.jpg            	1	6	1	nma_lock03.jpg       	nonmovArt	4	lock      	24	lock03      	242	not_alive	0	still	0	artefact	0	n	0	0        	 	0.0	0	134.941231400007	135.041182199959	0.0999507999513298
231921	100	406	stimuli/nonmovArt/clothespeg/nma_clothespeg03.jpg	1	6	1	nma_clothespeg03.jpg 	nonmovArt	4	clothespeg	8	clothespeg03	82	not_alive	0	still	0	artefact	0	n	0	0        	 	0.0	0	135.091190299951	135.191192999948	0.100002699997276
232071	100	407	stimuli/plant/flower/plant_flower08.jpg          	1	6	1	plant_flower08.jpg   	plant    	6	flower    	16	flower08    	167	alive    	1	still	0	natural 	1	n	0	0        	 	0.0	0	135.24119239999	135.341184000019	0.0999916000291705
232221	100	408	stimuli/movNat/hotspring/mn_hotspring02.jpg      	1	6	1	mn_hotspring02.jpg   	movNat   	3	hotspring 	21	hotspring02 	211	not_alive	0	moves	1	natural 	1	n	0	0        	 	0.0	0	135.391193700023	135.491188199958	0.0999944999348372
232371	100	409	stimuli/plant2/lemontree/plant_lemontree04.jpg   	1	6	1	plant_lemontree04.jpg	plant2   	7	lemontree 	22	lemontree04 	223	alive    	1	still	0	natural 	1	n	0	0        	 	0.0	0	135.541216599988	135.641190099996	0.0999735000077635
232521	100	410	stimuli/movArt/car/ma_car10.jpg                  	1	6	1	ma_car10.jpg         	movArt   	2	car       	5	car10       	59	not_alive	0	moves	1	artefact	0	n	0	0        	 	0.0	0	135.691217100015	135.79119680007	0.0999797000549734
232671	100	411	stimuli/animals/eagle/animal_eagle08.jpg         	1	6	1	animal_eagle08.jpg   	animals  	0	eagle     	13	eagle08     	137	alive    	1	moves	1	natural 	1	n	0	0        	 	0.0	0	135.841206700075	135.941202000016	0.0999952999409288
232821	100	412	stimuli/plant2/lemontree/plant_lemontree09.jpg   	1	6	1	plant_lemontree09.jpg	plant2   	7	lemontree 	22	lemontree09 	228	alive    	1	still	0	natural 	1	n	0	0        	 	0.0	0	135.99121030001	136.091206500074	0.0999962000641972
