onset	duration	eventnumber	stimulus_file	blockno	trialno	is_faststream	stim	stim_category	category_number	exemplar	exemplar_number	image_name	image_number	aliveness	aliveness_bin	movement	movement_bin	naturalness	naturalness_bin	response_hand_alive	istarget	response	keypressed	rt	correct	time_stimon	time_stimoff	stimdur
72581	100	0	stimuli/movArt/helicopter/ma_helicopter09.jpg    	1	1	1	ma_helicopter09.jpg  	movArt   	2	helicopter	19	helicopter09	198	not_alive	0	moves	1	artefact	0	n	0	0        	 	0.0	0	60.5703646999318	60.670337199932	0.099972500000149
72731	100	1	stimuli/plant/grass/plant_grass04.jpg            	1	1	1	plant_grass04.jpg    	plant    	6	grass     	17	grass04     	173	alive    	1	still	0	natural 	1	n	0	0        	 	0.0	0	60.7203577000182	60.8203431000002	0.0999853999819606
72881	100	2	stimuli/animals2/pigeon/animal_pigeon09.jpg      	1	1	1	animal_pigeon09.jpg  	animals2 	1	pigeon    	28	pigeon09    	288	alive    	1	moves	1	natural 	1	n	0	1        	a	0.0	0	60.870352299884	60.9703460000455	0.0999937001615763
73031	100	3	stimuli/plant2/palmtree/plant_palmtree08.jpg     	1	1	1	plant_palmtree08.jpg 	plant2   	7	palmtree  	27	palmtree08  	277	alive    	1	still	0	natural 	1	n	0	1        	a	0.0	0	61.0203539000358	61.1203497999813	0.0999958999454975
73181	100	4	stimuli/nonmovArt/bench/nma_bench05.jpg          	1	1	1	nma_bench05.jpg      	nonmovArt	4	bench     	1	bench05     	14	not_alive	0	still	0	artefact	0	n	0	0        	 	0.0	0	61.1703578000888	61.270351999905	0.0999941998161376
73331	100	5	stimuli/animals2/pigeon/animal_pigeon10.jpg      	1	1	1	animal_pigeon10.jpg  	animals2 	1	pigeon    	28	pigeon10    	289	alive    	1	moves	1	natural 	1	n	0	0        	 	0.0	0	61.3203626000322	61.420356299961	0.0999936999287456
73481	100	6	stimuli/movArt/train/ma_train05.jpg              	1	1	1	ma_train05.jpg       	movArt   	2	train     	34	train05     	344	not_alive	0	moves	1	artefact	0	n	0	0        	 	0.0	0	61.470365999965	61.5703588000033	0.0999928000383079
73632	100	7	stimuli/plant2/clover/plant_clover04.jpg         	1	1	1	plant_clover04.jpg   	plant2   	7	clover    	9	clover04    	93	alive    	1	still	0	natural 	1	n	0	0        	 	0.0	0	61.6206467999145	61.7203669000883	0.0997201001737267
73781	100	8	stimuli/movNat/waterfall/mn_waterfall07.jpg      	1	1	1	mn_waterfall07.jpg   	movNat   	3	waterfall 	37	waterfall07 	376	not_alive	0	moves	1	natural 	1	n	0	0        	 	0.0	0	61.7703782999888	61.8703664999921	0.0999882000032812
73931	100	9	stimuli/movNat/fire/mn_fire05.jpg                	1	1	1	mn_fire05.jpg        	movNat   	3	fire      	15	fire05      	154	not_alive	0	moves	1	natural 	1	n	0	0        	 	0.0	0	61.9203762998805	62.0203875999432	0.100011300062761
74081	100	10	stimuli/plant2/fern/plant_fern08.jpg             	1	1	1	plant_fern08.jpg     	plant2   	7	fern      	14	fern08      	147	alive    	1	still	0	natural 	1	n	0	0        	 	0.0	0	62.0703791999258	62.1703733000904	0.0999941001646221
74231	100	11	stimuli/nonmovNat/cliff/nmn_cliff01.jpg          	1	1	1	nmn_cliff01.jpg      	nonmovNat	5	cliff     	7	cliff01     	70	not_alive	0	still	0	natural 	1	n	0	0        	 	0.0	0	62.2203847998753	62.3203787999228	0.0999940000474453
74381	100	12	stimuli/animals/dog/animal_dog03.jpg             	1	1	1	animal_dog03.jpg     	animals  	0	dog       	11	dog03       	112	alive    	1	moves	1	natural 	1	n	0	0        	 	0.0	0	62.3703882999253	62.4703837998677	0.0999954999424517
74531	100	13	stimuli/plant/cactus/plant_cactus05.jpg          	1	1	1	plant_cactus05.jpg   	plant    	6	cactus    	4	cactus05    	44	alive    	1	still	0	natural 	1	n	0	0        	 	0.0	0	62.5204071998596	62.6203834000044	0.099976200144738
74681	100	14	stimuli/plant2/palmtree/plant_palmtree09.jpg     	1	1	1	plant_palmtree09.jpg 	plant2   	7	palmtree  	27	palmtree09  	278	alive    	1	still	0	natural 	1	n	0	0        	 	0.0	0	62.670394100016	62.7703889999539	0.099994899937883
74831	100	15	stimuli/nonmovNat/crystal/nmn_crystal04.jpg      	1	1	1	nmn_crystal04.jpg    	nonmovNat	5	crystal   	10	crystal04   	103	not_alive	0	still	0	natural 	1	n	1	0        	 	0.0	0	62.8203962999396	62.9203941999003	0.0999978999607265
74981	100	16	stimuli/nonmovNat/shell/nmn_shell05.jpg          	1	1	1	nmn_shell05.jpg      	nonmovNat	5	shell     	32	shell05     	324	not_alive	0	still	0	natural 	1	n	0	0        	 	0.0	0	62.9704024998937	63.0704030999914	0.100000600097701
75131	100	17	stimuli/animals/dog/animal_dog02.jpg             	1	1	1	animal_dog02.jpg     	animals  	0	dog       	11	dog02       	111	alive    	1	moves	1	natural 	1	n	0	1        	a	0.407065100036561	1	63.1204075000715	63.2203996998724	0.0999921998009086
75281	100	18	stimuli/movArt/boat/ma_boat06.jpg                	1	1	1	ma_boat06.jpg        	movArt   	2	boat      	2	boat06      	25	not_alive	0	moves	1	artefact	0	n	0	0        	 	0.0	0	63.2703929999843	63.3704331000336	0.100040100049227
75432	100	19	stimuli/animals2/whale/animal_whale02.jpg        	1	1	1	animal_whale02.jpg   	animals2 	1	whale     	39	whale02     	391	alive    	1	moves	1	natural 	1	n	0	0        	 	0.0	0	63.4204621000681	63.5204244998749	0.0999623998068273
75582	100	20	stimuli/animals/cat/animal_cat09.jpg             	1	1	1	animal_cat09.jpg     	animals  	0	cat       	6	cat09       	68	alive    	1	moves	1	natural 	1	n	0	0        	 	0.0	0	63.5704298000783	63.6704392998945	0.100009499816224
75732	100	21	stimuli/animals2/whale/animal_whale01.jpg        	1	1	1	animal_whale01.jpg   	animals2 	1	whale     	39	whale01     	390	alive    	1	moves	1	natural 	1	n	0	0        	 	0.0	0	63.7204326998908	63.8204421000555	0.100009400164708
75882	100	22	stimuli/animals/eagle/animal_eagle03.jpg         	1	1	1	animal_eagle03.jpg   	animals  	0	eagle     	13	eagle03     	132	alive    	1	moves	1	natural 	1	n	0	0        	 	0.0	0	63.87046190002	63.970428599976	0.099966699955985
76032	100	23	stimuli/animals/dolphin/animal_dolphin02.jpg     	1	1	1	animal_dolphin02.jpg 	animals  	0	dolphin   	12	dolphin02   	121	alive    	1	moves	1	natural 	1	n	0	0        	 	0.0	0	64.0204384999815	64.1204472999088	0.100008799927309
76182	100	24	stimuli/plant/grass/plant_grass06.jpg            	1	1	1	plant_grass06.jpg    	plant    	6	grass     	17	grass06     	175	alive    	1	still	0	natural 	1	n	0	0        	 	0.0	0	64.1704702998977	64.270436800085	0.0999665001872927
76332	100	25	stimuli/animals2/bee/animal_bee03.jpg            	1	1	1	animal_bee03.jpg     	animals2 	1	bee       	0	bee03       	2	alive    	1	moves	1	natural 	1	n	0	0        	 	0.0	0	64.3204631998669	64.4204543998931	0.0999912000261247
76482	100	26	stimuli/animals2/lemur/animal_lemur09.jpg        	1	1	1	animal_lemur09.jpg   	animals2 	1	lemur     	23	lemur09     	238	alive    	1	moves	1	natural 	1	n	0	0        	 	0.0	0	64.4704493999015	64.5704623998608	0.10001299995929
76632	100	27	stimuli/nonmovNat/crystal/nmn_crystal05.jpg      	1	1	1	nmn_crystal05.jpg    	nonmovNat	5	crystal   	10	crystal05   	104	not_alive	0	still	0	natural 	1	n	0	0        	 	0.0	0	64.6204764998984	64.7204676000401	0.0999911001417786
76782	100	28	stimuli/movArt/car/ma_car01.jpg                  	1	1	1	ma_car01.jpg         	movArt   	2	car       	5	car01       	50	not_alive	0	moves	1	artefact	0	n	1	0        	 	0.0	0	64.7704570998904	64.8704534000717	0.099996300181374
76932	100	29	stimuli/plant/vine/plant_vine09.jpg              	1	1	1	plant_vine09.jpg     	plant    	6	vine      	36	vine09      	368	alive    	1	still	0	natural 	1	n	0	0        	 	0.0	0	64.920462399954	65.0204558998812	0.0999934999272227
77082	100	30	stimuli/animals/horse/animal_horse07.jpg         	1	1	1	animal_horse07.jpg   	animals  	0	horse     	20	horse07     	206	alive    	1	moves	1	natural 	1	n	0	1        	f	0.29219330009073	1	65.0704693000298	65.1704611000605	0.0999918000306934
77232	100	31	stimuli/nonmovArt/clothespeg/nma_clothespeg08.jpg	1	1	1	nma_clothespeg08.jpg 	nonmovArt	4	clothespeg	8	clothespeg08	87	not_alive	0	still	0	artefact	0	n	0	0        	 	0.0	0	65.2204708999489	65.3204852999188	0.10001439996995
77382	100	32	stimuli/movNat/waves/mn_waves08.jpg              	1	1	1	mn_waves08.jpg       	movNat   	3	waves     	38	waves08     	387	not_alive	0	moves	1	natural 	1	n	0	0        	 	0.0	0	65.370473299874	65.4704658000264	0.0999925001524389
77532	100	33	stimuli/plant/flower/plant_flower01.jpg          	1	1	1	plant_flower01.jpg   	plant    	6	flower    	16	flower01    	160	alive    	1	still	0	natural 	1	n	0	0        	 	0.0	0	65.5204835999757	65.620473299874	0.0999896998982876
77682	100	34	stimuli/animals2/bee/animal_bee02.jpg            	1	1	1	animal_bee02.jpg     	animals2 	1	bee       	0	bee02       	1	alive    	1	moves	1	natural 	1	n	0	0        	 	0.0	0	65.6704949999694	65.7704791000579	0.0999841000884771
77832	100	35	stimuli/movArt/bus/ma_bus07.jpg                  	1	1	1	ma_bus07.jpg         	movArt   	2	bus       	3	bus07       	36	not_alive	0	moves	1	artefact	0	n	0	0        	 	0.0	0	65.8204838000238	65.9204867999069	0.100002999883145
77982	100	36	stimuli/movNat/river/mn_river05.jpg              	1	1	1	mn_river05.jpg       	movNat   	3	river     	29	river05     	294	not_alive	0	moves	1	natural 	1	n	0	0        	 	0.0	0	65.9704863000661	66.0704890999477	0.100002799881622
78132	100	37	stimuli/movArt/bus/ma_bus09.jpg                  	1	1	1	ma_bus09.jpg         	movArt   	2	bus       	3	bus09       	38	not_alive	0	moves	1	artefact	0	n	0	0        	 	0.0	0	66.1205082999077	66.2204841999337	0.0999759000260383
78282	100	38	stimuli/nonmovNat/rock/nmn_rock04.jpg            	1	1	1	nmn_rock04.jpg       	nonmovNat	5	rock      	30	rock04      	303	not_alive	0	still	0	natural 	1	n	0	0        	 	0.0	0	66.2705097999424	66.3704977999441	0.0999880000017583
78432	100	39	stimuli/movNat/river/mn_river02.jpg              	1	1	1	mn_river02.jpg       	movNat   	3	river     	29	river02     	291	not_alive	0	moves	1	natural 	1	n	0	0        	 	0.0	0	66.4205124999862	66.5205077999271	0.0999952999409288
78582	100	40	stimuli/animals/cat/animal_cat10.jpg             	1	1	1	animal_cat10.jpg     	animals  	0	cat       	6	cat10       	69	alive    	1	moves	1	natural 	1	n	0	0        	 	0.0	0	66.5705200000666	66.6704943000805	0.0999743000138551
78732	100	41	stimuli/plant2/fern/plant_fern03.jpg             	1	1	1	plant_fern03.jpg     	plant2   	7	fern      	14	fern03      	142	alive    	1	still	0	natural 	1	n	0	0        	 	0.0	0	66.7205139000434	66.8205178000499	0.100003900006413
78882	100	42	stimuli/plant/cactus/plant_cactus04.jpg          	1	1	1	plant_cactus04.jpg   	plant    	6	cactus    	4	cactus04    	43	alive    	1	still	0	natural 	1	n	1	0        	 	0.0	0	66.8705221000127	66.9705177999567	0.0999956999439746
79032	100	43	stimuli/animals2/lemur/animal_lemur04.jpg        	1	1	1	animal_lemur04.jpg   	animals2 	1	lemur     	23	lemur04     	233	alive    	1	moves	1	natural 	1	n	0	0        	 	0.0	0	67.0205564999487	67.1205283999443	0.0999718999955803
79182	100	44	stimuli/movArt/boat/ma_boat04.jpg                	1	1	1	ma_boat04.jpg        	movArt   	2	boat      	2	boat04      	23	not_alive	0	moves	1	artefact	0	n	1	1        	f	-0.0078925001434981	1	67.1705318000168	67.2705262999516	0.0999944999348372
79332	100	45	stimuli/movNat/waves/mn_waves03.jpg              	1	1	1	mn_waves03.jpg       	movNat   	3	waves     	38	waves03     	382	not_alive	0	moves	1	natural 	1	n	0	0        	 	0.0	0	67.3205373000819	67.4205269999802	0.0999896998982876
79482	100	46	stimuli/nonmovNat/cliff/nmn_cliff10.jpg          	1	1	1	nmn_cliff10.jpg      	nonmovNat	5	cliff     	7	cliff10     	79	not_alive	0	still	0	natural 	1	n	0	0        	 	0.0	0	67.4705409999005	67.5705347999465	0.0999938000459224
79632	100	47	stimuli/plant/tree/plant_tree09.jpg              	1	1	1	plant_tree09.jpg     	plant    	6	tree      	35	tree09      	358	alive    	1	still	0	natural 	1	n	0	1        	f	0.542346199974418	1	67.6205275999382	67.7205195999704	0.0999920000322163
79782	100	48	stimuli/animals/horse/animal_horse07.jpg         	1	1	1	animal_horse07.jpg   	animals  	0	horse     	20	horse07     	206	alive    	1	moves	1	natural 	1	n	0	0        	 	0.0	0	67.7705500999	67.870569499908	0.100019400008023
79932	100	49	stimuli/animals/horse/animal_horse03.jpg         	1	1	1	animal_horse03.jpg   	animals  	0	horse     	20	horse03     	202	alive    	1	moves	1	natural 	1	n	0	0        	 	0.0	0	67.92053569993	68.0205445999745	0.100008900044486
80082	100	50	stimuli/nonmovArt/mug/nma_mug01.jpg              	1	1	1	nma_mug01.jpg        	nonmovArt	4	mug       	26	mug01       	260	not_alive	0	still	0	artefact	0	n	0	0        	 	0.0	0	68.0705474000424	68.1705314998981	0.0999840998556465
80232	100	51	stimuli/nonmovArt/bench/nma_bench02.jpg          	1	1	1	nma_bench02.jpg      	nonmovArt	4	bench     	1	bench02     	11	not_alive	0	still	0	artefact	0	n	0	0        	 	0.0	0	68.2205219999887	68.3205504999496	0.100028499960899
80382	100	52	stimuli/movArt/bus/ma_bus07.jpg                  	1	1	1	ma_bus07.jpg         	movArt   	2	bus       	3	bus07       	36	not_alive	0	moves	1	artefact	0	n	0	0        	 	0.0	0	68.3705561999232	68.4705554998945	0.0999992999713868
80532	100	53	stimuli/movArt/train/ma_train02.jpg              	1	1	1	ma_train02.jpg       	movArt   	2	train     	34	train02     	341	not_alive	0	moves	1	artefact	0	n	0	0        	 	0.0	0	68.5205635998864	68.6205710999202	0.100007500033826
80682	100	54	stimuli/animals2/bee/animal_bee02.jpg            	1	1	1	animal_bee02.jpg     	animals2 	1	bee       	0	bee02       	1	alive    	1	moves	1	natural 	1	n	0	0        	 	0.0	0	68.670564699918	68.7705681999214	0.100003500003368
80832	100	55	stimuli/animals2/pigeon/animal_pigeon07.jpg      	1	1	1	animal_pigeon07.jpg  	animals2 	1	pigeon    	28	pigeon07    	286	alive    	1	moves	1	natural 	1	n	0	1        	f	0.0	0	68.8205706998706	68.9205690999515	0.0999984000809491
80982	100	56	stimuli/animals2/tiger/animal_tiger09.jpg        	1	1	1	animal_tiger09.jpg   	animals2 	1	tiger     	33	tiger09     	338	alive    	1	moves	1	natural 	1	n	0	0        	 	0.0	0	68.9705896999221	69.0705719999969	0.099982300074771
81132	100	57	stimuli/plant2/moss/plant_moss04.jpg             	1	1	1	plant_moss04.jpg     	plant2   	7	moss      	25	moss04      	253	alive    	1	still	0	natural 	1	n	0	0        	 	0.0	0	69.1205649999902	69.2205745999236	0.100009599933401
81282	100	58	stimuli/animals/dolphin/animal_dolphin10.jpg     	1	1	1	animal_dolphin10.jpg 	animals  	0	dolphin   	12	dolphin10   	129	alive    	1	moves	1	natural 	1	n	0	0        	 	0.0	0	69.270567700034	69.3705786999781	0.100010999944061
81432	100	59	stimuli/animals/eagle/animal_eagle03.jpg         	1	1	1	animal_eagle03.jpg   	animals  	0	eagle     	13	eagle03     	132	alive    	1	moves	1	natural 	1	n	0	0        	 	0.0	0	69.4205876998603	69.5205663999077	0.0999787000473589
81582	100	60	stimuli/nonmovNat/sand/nmn_sand05.jpg            	1	1	1	nmn_sand05.jpg       	nonmovNat	5	sand      	31	sand05      	314	not_alive	0	still	0	natural 	1	n	0	0        	 	0.0	0	69.5705911000259	69.6705847999547	0.0999936999287456
81732	100	61	stimuli/nonmovNat/crystal/nmn_crystal03.jpg      	1	1	1	nmn_crystal03.jpg    	nonmovNat	5	crystal   	10	crystal03   	102	not_alive	0	still	0	natural 	1	n	0	0        	 	0.0	0	69.7205896999221	69.8205887000076	0.0999990000855178
81882	100	62	stimuli/animals/cat/animal_cat08.jpg             	1	1	1	animal_cat08.jpg     	animals  	0	cat       	6	cat08       	67	alive    	1	moves	1	natural 	1	n	0	0        	 	0.0	0	69.8705990999006	69.970578199951	0.0999791000504047
82032	100	63	stimuli/movNat/hotspring/mn_hotspring01.jpg      	1	1	1	mn_hotspring01.jpg   	movNat   	3	hotspring 	21	hotspring01 	210	not_alive	0	moves	1	natural 	1	n	0	0        	 	0.0	0	70.0205804000143	70.1205748999491	0.0999944999348372
82182	100	64	stimuli/animals2/lemur/animal_lemur03.jpg        	1	1	1	animal_lemur03.jpg   	animals2 	1	lemur     	23	lemur03     	232	alive    	1	moves	1	natural 	1	n	0	0        	 	0.0	0	70.1705843000673	70.2705761999823	0.0999918999150395
82332	100	65	stimuli/animals2/tiger/animal_tiger07.jpg        	1	1	1	animal_tiger07.jpg   	animals2 	1	tiger     	33	tiger07     	336	alive    	1	moves	1	natural 	1	n	0	0        	 	0.0	0	70.3205881998874	70.4205833000596	0.0999951001722366
82482	100	66	stimuli/movNat/hotspring/mn_hotspring03.jpg      	1	1	1	mn_hotspring03.jpg   	movNat   	3	hotspring 	21	hotspring03 	212	not_alive	0	moves	1	natural 	1	n	0	0        	 	0.0	0	70.4705920000561	70.57058459986	0.0999925998039544
82632	100	67	stimuli/plant/cactus/plant_cactus04.jpg          	1	1	1	plant_cactus04.jpg   	plant    	6	cactus    	4	cactus04    	43	alive    	1	still	0	natural 	1	n	0	0        	 	0.0	0	70.6205972000025	70.7205902999267	0.0999930999241769
82782	100	68	stimuli/movArt/car/ma_car05.jpg                  	1	1	1	ma_car05.jpg         	movArt   	2	car       	5	car05       	54	not_alive	0	moves	1	artefact	0	n	0	0        	 	0.0	0	70.7706013999414	70.870592799969	0.0999914000276476
82932	100	69	stimuli/movArt/helicopter/ma_helicopter07.jpg    	1	1	1	ma_helicopter07.jpg  	movArt   	2	helicopter	19	helicopter07	196	not_alive	0	moves	1	artefact	0	n	0	0        	 	0.0	0	70.920602499973	71.0205961000174	0.0999936000443995
83082	100	70	stimuli/plant2/lemontree/plant_lemontree09.jpg   	1	1	1	plant_lemontree09.jpg	plant2   	7	lemontree 	22	lemontree09 	228	alive    	1	still	0	natural 	1	n	0	0        	 	0.0	0	71.0706052000169	71.1706153999548	0.100010199937969
83232	100	71	stimuli/plant/vine/plant_vine03.jpg              	1	1	1	plant_vine03.jpg     	plant    	6	vine      	36	vine03      	362	alive    	1	still	0	natural 	1	n	0	0        	 	0.0	0	71.2206208999269	71.320607499918	0.099986599991098
83382	100	72	stimuli/animals2/tiger/animal_tiger09.jpg        	1	1	1	animal_tiger09.jpg   	animals2 	1	tiger     	33	tiger09     	338	alive    	1	moves	1	natural 	1	n	0	0        	 	0.0	0	71.3706135998946	71.4706085999496	0.0999950000550598
83532	100	73	stimuli/nonmovArt/mug/nma_mug01.jpg              	1	1	1	nma_mug01.jpg        	nonmovArt	4	mug       	26	mug01       	260	not_alive	0	still	0	artefact	0	n	0	0        	 	0.0	0	71.5206188999582	71.6206089998595	0.0999900999013334
83682	100	74	stimuli/plant2/clover/plant_clover06.jpg         	1	1	1	plant_clover06.jpg   	plant2   	7	clover    	9	clover06    	95	alive    	1	still	0	natural 	1	n	0	0        	 	0.0	0	71.6706196998712	71.7706138000358	0.0999941001646221
83832	100	75	stimuli/movNat/river/mn_river04.jpg              	1	1	1	mn_river04.jpg       	movNat   	3	river     	29	river04     	293	not_alive	0	moves	1	natural 	1	n	0	0        	 	0.0	0	71.8206269000657	71.9206447000615	0.10001779999584
83982	100	76	stimuli/nonmovArt/headphones/nma_headphones07.jpg	1	1	1	nma_headphones07.jpg 	nonmovArt	4	headphones	18	headphones07	186	not_alive	0	still	0	artefact	0	n	0	0        	 	0.0	0	71.9706273998599	72.0706215000246	0.0999941001646221
84132	100	77	stimuli/plant2/lemontree/plant_lemontree04.jpg   	1	1	1	plant_lemontree04.jpg	plant2   	7	lemontree 	22	lemontree04 	223	alive    	1	still	0	natural 	1	n	0	0        	 	0.0	0	72.1206304999069	72.2206254999619	0.0999950000550598
84282	100	78	stimuli/plant/flower/plant_flower09.jpg          	1	1	1	plant_flower09.jpg   	plant    	6	flower    	16	flower09    	168	alive    	1	still	0	natural 	1	n	0	0        	 	0.0	0	72.2706351000816	72.3706290000118	0.0999938999302685
84432	100	79	stimuli/animals/dolphin/animal_dolphin07.jpg     	1	1	1	animal_dolphin07.jpg 	animals  	0	dolphin   	12	dolphin07   	126	alive    	1	moves	1	natural 	1	n	0	0        	 	0.0	0	72.4206379998941	72.5206500999629	0.100012100068852
91682	100	80	stimuli/movNat/fire/mn_fire01.jpg                	1	2	1	mn_fire01.jpg        	movNat   	3	fire      	15	fire01      	150	not_alive	0	moves	1	natural 	1	n	0	0        	 	0.0	0	79.6708192999941	79.7708153000567	0.0999960000626743
91832	100	81	stimuli/nonmovArt/lock/nma_lock07.jpg            	1	2	1	nma_lock07.jpg       	nonmovArt	4	lock      	24	lock07      	246	not_alive	0	still	0	artefact	0	n	0	0        	 	0.0	0	79.8208212999161	79.9208138000686	0.0999925001524389
91982	100	82	stimuli/plant2/moss/plant_moss06.jpg             	1	2	1	plant_moss06.jpg     	plant2   	7	moss      	25	moss06      	255	alive    	1	still	0	natural 	1	n	0	0        	 	0.0	0	79.9708241000772	80.0708167999983	0.0999926999211311
92132	100	83	stimuli/nonmovArt/lock/nma_lock06.jpg            	1	2	1	nma_lock06.jpg       	nonmovArt	4	lock      	24	lock06      	245	not_alive	0	still	0	artefact	0	n	0	0        	 	0.0	0	80.1208375000861	80.2208241000772	0.099986599991098
92282	100	84	stimuli/nonmovArt/headphones/nma_headphones05.jpg	1	2	1	nma_headphones05.jpg 	nonmovArt	4	headphones	18	headphones05	184	not_alive	0	still	0	artefact	0	n	0	0        	 	0.0	0	80.270810799906	80.3708345999476	0.100023800041527
92432	100	85	stimuli/movArt/helicopter/ma_helicopter10.jpg    	1	2	1	ma_helicopter10.jpg  	movArt   	2	helicopter	19	helicopter10	199	not_alive	0	moves	1	artefact	0	n	0	0        	 	0.0	0	80.4208360000048	80.520839799894	0.100003799889237
92582	100	86	stimuli/plant/grass/plant_grass04.jpg            	1	2	1	plant_grass04.jpg    	plant    	6	grass     	17	grass04     	173	alive    	1	still	0	natural 	1	n	0	0        	 	0.0	0	80.5708403000608	80.6708456000779	0.100005300017074
92732	100	87	stimuli/movNat/waterfall/mn_waterfall04.jpg      	1	2	1	mn_waterfall04.jpg   	movNat   	3	waterfall 	37	waterfall04 	373	not_alive	0	moves	1	natural 	1	n	0	0        	 	0.0	0	80.7208436999936	80.8208353999071	0.0999916999135166
92882	100	88	stimuli/movNat/hotspring/mn_hotspring08.jpg      	1	2	1	mn_hotspring08.jpg   	movNat   	3	hotspring 	21	hotspring08 	217	not_alive	0	moves	1	natural 	1	n	0	0        	 	0.0	0	80.8708462000359	80.970859499881	0.100013299845159
93032	100	89	stimuli/nonmovArt/mug/nma_mug08.jpg              	1	2	1	nma_mug08.jpg        	nonmovArt	4	mug       	26	mug08       	267	not_alive	0	still	0	artefact	0	n	0	0        	 	0.0	0	81.0208505999763	81.1208422998898	0.0999916999135166
93182	100	90	stimuli/nonmovArt/bench/nma_bench08.jpg          	1	2	1	nma_bench08.jpg      	nonmovArt	4	bench     	1	bench08     	17	not_alive	0	still	0	artefact	0	n	0	0        	 	0.0	0	81.1708668998908	81.2708487000782	0.0999818001873791
93332	100	91	stimuli/plant/vine/plant_vine02.jpg              	1	2	1	plant_vine02.jpg     	plant    	6	vine      	36	vine02      	361	alive    	1	still	0	natural 	1	n	0	0        	 	0.0	0	81.3208603998646	81.4208569999319	0.099996600067243
93482	100	92	stimuli/nonmovNat/shell/nmn_shell09.jpg          	1	2	1	nmn_shell09.jpg      	nonmovNat	5	shell     	32	shell09     	328	not_alive	0	still	0	natural 	1	n	0	0        	 	0.0	0	81.4708656000439	81.5708552999422	0.0999896998982876
93632	100	93	stimuli/nonmovArt/lock/nma_lock07.jpg            	1	2	1	nma_lock07.jpg       	nonmovArt	4	lock      	24	lock07      	246	not_alive	0	still	0	artefact	0	n	0	0        	 	0.0	0	81.620866100071	81.7208872998599	0.100021199788898
93782	100	94	stimuli/plant/tree/plant_tree07.jpg              	1	2	1	plant_tree07.jpg     	plant    	6	tree      	35	tree07      	356	alive    	1	still	0	natural 	1	n	0	0        	 	0.0	0	81.7708683998789	81.8708599999081	0.0999916000291705
93932	100	95	stimuli/nonmovNat/sand/nmn_sand01.jpg            	1	2	1	nmn_sand01.jpg       	nonmovNat	5	sand      	31	sand01      	310	not_alive	0	still	0	natural 	1	n	0	0        	 	0.0	0	81.9208742000628	82.0208663998637	0.0999921998009086
94082	100	96	stimuli/nonmovArt/headphones/nma_headphones09.jpg	1	2	1	nma_headphones09.jpg 	nonmovArt	4	headphones	18	headphones09	188	not_alive	0	still	0	artefact	0	n	0	0        	 	0.0	0	82.0708900999743	82.1708698000293	0.0999797000549734
94232	100	97	stimuli/movArt/train/ma_train07.jpg              	1	2	1	ma_train07.jpg       	movArt   	2	train     	34	train07     	346	not_alive	0	moves	1	artefact	0	n	0	0        	 	0.0	0	82.2208791999146	82.3208854999393	0.100006300024688
94382	100	98	stimuli/plant2/palmtree/plant_palmtree01.jpg     	1	2	1	plant_palmtree01.jpg 	plant2   	7	palmtree  	27	palmtree01  	270	alive    	1	still	0	natural 	1	n	0	0        	 	0.0	0	82.3708832000848	82.4708992999513	0.10001609986648
94532	100	99	stimuli/nonmovNat/shell/nmn_shell10.jpg          	1	2	1	nmn_shell10.jpg      	nonmovNat	5	shell     	32	shell10     	329	not_alive	0	still	0	natural 	1	n	0	0        	 	0.0	0	82.5208878000267	82.6208836000878	0.0999958000611514
94682	100	100	stimuli/nonmovArt/clothespeg/nma_clothespeg04.jpg	1	2	1	nma_clothespeg04.jpg 	nonmovArt	4	clothespeg	8	clothespeg04	83	not_alive	0	still	0	artefact	0	n	0	0        	 	0.0	0	82.6708893999457	82.7708827999886	0.0999934000428766
94832	100	101	stimuli/nonmovArt/clothespeg/nma_clothespeg10.jpg	1	2	1	nma_clothespeg10.jpg 	nonmovArt	4	clothespeg	8	clothespeg10	89	not_alive	0	still	0	artefact	0	n	0	0        	 	0.0	0	82.8209138999227	82.9208877999336	0.0999739000108093
94982	100	102	stimuli/plant2/clover/plant_clover10.jpg         	1	2	1	plant_clover10.jpg   	plant2   	7	clover    	9	clover10    	99	alive    	1	still	0	natural 	1	n	0	0        	 	0.0	0	82.9708970999345	83.0709017000627	0.100004600128159
95132	100	103	stimuli/movArt/car/ma_car06.jpg                  	1	2	1	ma_car06.jpg         	movArt   	2	car       	5	car06       	55	not_alive	0	moves	1	artefact	0	n	0	0        	 	0.0	0	83.120901199989	83.2208986000624	0.0999974000733346
95282	100	104	stimuli/plant2/lemontree/plant_lemontree07.jpg   	1	2	1	plant_lemontree07.jpg	plant2   	7	lemontree 	22	lemontree07 	226	alive    	1	still	0	natural 	1	n	0	0        	 	0.0	0	83.2709077000618	83.3708985999692	0.099990899907425
95432	100	105	stimuli/nonmovNat/rock/nmn_rock06.jpg            	1	2	1	nmn_rock06.jpg       	nonmovNat	5	rock      	30	rock06      	305	not_alive	0	still	0	natural 	1	n	0	0        	 	0.0	0	83.4209384999704	83.5209057000466	0.0999672000762075
95582	100	106	stimuli/nonmovNat/rock/nmn_rock07.jpg            	1	2	1	nmn_rock07.jpg       	nonmovNat	5	rock      	30	rock07      	306	not_alive	0	still	0	natural 	1	n	0	0        	 	0.0	0	83.5709408998955	83.6709046999458	0.0999638000503182
95732	100	107	stimuli/plant/tree/plant_tree08.jpg              	1	2	1	plant_tree08.jpg     	plant    	6	tree      	35	tree08      	357	alive    	1	still	0	natural 	1	n	0	0        	 	0.0	0	83.7209171999712	83.8209152000491	0.0999980000779033
95882	100	108	stimuli/animals/eagle/animal_eagle06.jpg         	1	2	1	animal_eagle06.jpg   	animals  	0	eagle     	13	eagle06     	135	alive    	1	moves	1	natural 	1	n	0	0        	 	0.0	0	83.8709191000089	83.9709143000655	0.0999952000565827
96032	100	109	stimuli/movNat/fire/mn_fire09.jpg                	1	2	1	mn_fire09.jpg        	movNat   	3	fire      	15	fire09      	158	not_alive	0	moves	1	natural 	1	n	0	0        	 	0.0	0	84.0209230999462	84.1209201999009	0.0999970999546349
96182	100	110	stimuli/movArt/boat/ma_boat02.jpg                	1	2	1	ma_boat02.jpg        	movArt   	2	boat      	2	boat02      	21	not_alive	0	moves	1	artefact	0	n	0	0        	 	0.0	0	84.1709322999232	84.2709186999127	0.0999863999895752
96332	100	111	stimuli/plant/flower/plant_flower01.jpg          	1	2	1	plant_flower01.jpg   	plant    	6	flower    	16	flower01    	160	alive    	1	still	0	natural 	1	n	1	0        	 	0.0	0	84.3209462000523	84.420925399987	0.0999791999347508
96482	100	112	stimuli/nonmovNat/cliff/nmn_cliff02.jpg          	1	2	1	nmn_cliff02.jpg      	nonmovNat	5	cliff     	7	cliff02     	71	not_alive	0	still	0	natural 	1	n	0	0        	 	0.0	0	84.470943900058	84.5709299000446	0.0999859999865294
96632	100	113	stimuli/movNat/waterfall/mn_waterfall01.jpg      	1	2	1	mn_waterfall01.jpg   	movNat   	3	waterfall 	37	waterfall01 	370	not_alive	0	moves	1	natural 	1	n	0	1        	f	0.292138200020418	1	84.6209392999299	84.7209329998586	0.0999936999287456
96782	100	114	stimuli/animals/dog/animal_dog07.jpg             	1	2	1	animal_dog07.jpg     	animals  	0	dog       	11	dog07       	116	alive    	1	moves	1	natural 	1	n	0	0        	 	0.0	0	84.7709428998642	84.8709344998933	0.0999916000291705
96932	100	115	stimuli/plant2/fern/plant_fern09.jpg             	1	2	1	plant_fern09.jpg     	plant2   	7	fern      	14	fern09      	148	alive    	1	still	0	natural 	1	n	0	0        	 	0.0	0	84.9209570998792	85.02094019996	0.0999831000808626
97082	100	116	stimuli/nonmovNat/sand/nmn_sand09.jpg            	1	2	1	nmn_sand09.jpg       	nonmovNat	5	sand      	31	sand09      	318	not_alive	0	still	0	natural 	1	n	0	0        	 	0.0	0	85.0709563000128	85.1709423998836	0.0999860998708755
97232	100	117	stimuli/animals2/whale/animal_whale03.jpg        	1	2	1	animal_whale03.jpg   	animals2 	1	whale     	39	whale03     	392	alive    	1	moves	1	natural 	1	n	0	0        	 	0.0	0	85.2209534998983	85.3209472000599	0.0999937001615763
97382	100	118	stimuli/movNat/waves/mn_waves04.jpg              	1	2	1	mn_waves04.jpg       	movNat   	3	waves     	38	waves04     	383	not_alive	0	moves	1	natural 	1	n	0	0        	 	0.0	0	85.3709565999452	85.4709488998633	0.0999922999180853
97532	100	119	stimuli/plant2/moss/plant_moss05.jpg             	1	2	1	plant_moss05.jpg     	plant2   	7	moss      	25	moss05      	254	alive    	1	still	0	natural 	1	n	0	0        	 	0.0	0	85.5209597998764	85.6209624998737	0.100002699997276
97682	100	120	stimuli/movNat/waterfall/mn_waterfall01.jpg      	1	2	1	mn_waterfall01.jpg   	movNat   	3	waterfall 	37	waterfall01 	370	not_alive	0	moves	1	natural 	1	n	0	0        	 	0.0	0	85.6709628999233	85.7709707999602	0.100007900036871
97832	100	121	stimuli/movNat/fire/mn_fire04.jpg                	1	2	1	mn_fire04.jpg        	movNat   	3	fire      	15	fire04      	153	not_alive	0	moves	1	natural 	1	n	0	0        	 	0.0	0	85.8209683999885	85.9209606999066	0.0999922999180853
97982	100	122	stimuli/nonmovNat/sand/nmn_sand08.jpg            	1	2	1	nmn_sand08.jpg       	nonmovNat	5	sand      	31	sand08      	317	not_alive	0	still	0	natural 	1	n	0	0        	 	0.0	0	85.9709703999106	86.0709649999626	0.099994600052014
98132	100	123	stimuli/plant2/moss/plant_moss10.jpg             	1	2	1	plant_moss10.jpg     	plant2   	7	moss      	25	moss10      	259	alive    	1	still	0	natural 	1	n	0	0        	 	0.0	0	86.1209734999575	86.2209703000262	0.0999968000687659
98282	100	124	stimuli/movNat/waves/mn_waves09.jpg              	1	2	1	mn_waves09.jpg       	movNat   	3	waves     	38	waves09     	388	not_alive	0	moves	1	natural 	1	n	0	0        	 	0.0	0	86.2709800999146	86.3709728999529	0.0999928000383079
98432	100	125	stimuli/animals2/lemur/animal_lemur10.jpg        	1	2	1	animal_lemur10.jpg   	animals2 	1	lemur     	23	lemur10     	239	alive    	1	moves	1	natural 	1	n	0	0        	 	0.0	0	86.4209829000756	86.5209939000197	0.100010999944061
98582	100	126	stimuli/nonmovArt/bench/nma_bench05.jpg          	1	2	1	nma_bench05.jpg      	nonmovArt	4	bench     	1	bench05     	14	not_alive	0	still	0	artefact	0	n	1	0        	 	0.0	0	86.5709865998942	86.6709757999052	0.0999892000108957
98732	100	127	stimuli/plant/grass/plant_grass10.jpg            	1	2	1	plant_grass10.jpg    	plant    	6	grass     	17	grass10     	179	alive    	1	still	0	natural 	1	n	0	0        	 	0.0	0	86.7209888999351	86.820984599879	0.0999956999439746
98882	100	128	stimuli/movNat/river/mn_river09.jpg              	1	2	1	mn_river09.jpg       	movNat   	3	river     	29	river09     	298	not_alive	0	moves	1	natural 	1	n	0	1        	f	0.391978000057861	1	86.8709919999819	86.970988499932	0.0999964999500662
99032	100	129	stimuli/plant2/lemontree/plant_lemontree03.jpg   	1	2	1	plant_lemontree03.jpg	plant2   	7	lemontree 	22	lemontree03 	222	alive    	1	still	0	natural 	1	n	0	0        	 	0.0	0	87.0209989000577	87.1209903000854	0.0999914000276476
99182	100	130	stimuli/nonmovArt/mug/nma_mug07.jpg              	1	2	1	nma_mug07.jpg        	nonmovArt	4	mug       	26	mug07       	266	not_alive	0	still	0	artefact	0	n	0	0        	 	0.0	0	87.1710021998733	87.2710084000137	0.100006200140342
99332	100	131	stimuli/movArt/car/ma_car05.jpg                  	1	2	1	ma_car05.jpg         	movArt   	2	car       	5	car05       	54	not_alive	0	moves	1	artefact	0	n	0	0        	 	0.0	0	87.3210042999126	87.420997899957	0.0999936000443995
99482	100	132	stimuli/nonmovNat/crystal/nmn_crystal06.jpg      	1	2	1	nmn_crystal06.jpg    	nonmovNat	5	crystal   	10	crystal06   	105	not_alive	0	still	0	natural 	1	n	0	0        	 	0.0	0	87.4710043999367	87.5710012000054	0.0999968000687659
99632	100	133	stimuli/animals2/whale/animal_whale06.jpg        	1	2	1	animal_whale06.jpg   	animals2 	1	whale     	39	whale06     	395	alive    	1	moves	1	natural 	1	n	0	0        	 	0.0	0	87.6210119000171	87.7210043999367	0.0999924999196082
99782	100	134	stimuli/movArt/bus/ma_bus08.jpg                  	1	2	1	ma_bus08.jpg         	movArt   	2	bus       	3	bus08       	37	not_alive	0	moves	1	artefact	0	n	0	0        	 	0.0	0	87.7710148999467	87.8710220998619	0.100007199915126
99932	100	135	stimuli/plant/cactus/plant_cactus07.jpg          	1	2	1	plant_cactus07.jpg   	plant    	6	cactus    	4	cactus07    	46	alive    	1	still	0	natural 	1	n	0	0        	 	0.0	0	87.9210202998947	88.0210350998677	0.100014799972996
100082	100	136	stimuli/plant/vine/plant_vine10.jpg              	1	2	1	plant_vine10.jpg     	plant    	6	vine      	36	vine10      	369	alive    	1	still	0	natural 	1	n	0	0        	 	0.0	0	88.0710278998595	88.1710157999769	0.0999879001174122
100232	100	137	stimuli/nonmovArt/headphones/nma_headphones06.jpg	1	2	1	nma_headphones06.jpg 	nonmovArt	4	headphones	18	headphones06	185	not_alive	0	still	0	artefact	0	n	0	0        	 	0.0	0	88.2210263998713	88.321022399934	0.0999960000626743
100382	100	138	stimuli/plant2/lemontree/plant_lemontree07.jpg   	1	2	1	plant_lemontree07.jpg	plant2   	7	lemontree 	22	lemontree07 	226	alive    	1	still	0	natural 	1	n	0	0        	 	0.0	0	88.3710618999321	88.4710194000508	0.0999575001187622
100532	100	139	stimuli/movArt/helicopter/ma_helicopter02.jpg    	1	2	1	ma_helicopter02.jpg  	movArt   	2	helicopter	19	helicopter02	191	not_alive	0	moves	1	artefact	0	n	0	0        	 	0.0	0	88.5210333000869	88.6210443999153	0.100011099828407
100682	100	140	stimuli/animals2/pigeon/animal_pigeon08.jpg      	1	2	1	animal_pigeon08.jpg  	animals2 	1	pigeon    	28	pigeon08    	287	alive    	1	moves	1	natural 	1	n	0	0        	 	0.0	0	88.6710365000181	88.7710428000428	0.100006300024688
100832	100	141	stimuli/movNat/waterfall/mn_waterfall06.jpg      	1	2	1	mn_waterfall06.jpg   	movNat   	3	waterfall 	37	waterfall06 	375	not_alive	0	moves	1	natural 	1	n	0	0        	 	0.0	0	88.821040000068	88.921036100015	0.0999960999470204
100982	100	142	stimuli/animals/dog/animal_dog08.jpg             	1	2	1	animal_dog08.jpg     	animals  	0	dog       	11	dog08       	117	alive    	1	moves	1	natural 	1	n	0	0        	 	0.0	0	88.9710436000023	89.0710360999219	0.0999924999196082
101132	100	143	stimuli/plant/flower/plant_flower07.jpg          	1	2	1	plant_flower07.jpg   	plant    	6	flower    	16	flower07    	166	alive    	1	still	0	natural 	1	n	0	0        	 	0.0	0	89.1210795000661	89.2210415999871	0.0999620999209583
101282	100	144	stimuli/animals/dog/animal_dog09.jpg             	1	2	1	animal_dog09.jpg     	animals  	0	dog       	11	dog09       	118	alive    	1	moves	1	natural 	1	n	0	0        	 	0.0	0	89.2710491998587	89.3710529999808	0.100003800122067
101432	100	145	stimuli/movArt/helicopter/ma_helicopter02.jpg    	1	2	1	ma_helicopter02.jpg  	movArt   	2	helicopter	19	helicopter02	191	not_alive	0	moves	1	artefact	0	n	0	0        	 	0.0	0	89.4210560999345	89.5210468000732	0.0999907001387328
101582	100	146	stimuli/plant2/fern/plant_fern04.jpg             	1	2	1	plant_fern04.jpg     	plant2   	7	fern      	14	fern04      	143	alive    	1	still	0	natural 	1	n	0	0        	 	0.0	0	89.5710716000758	89.6710512000136	0.0999795999377966
101732	100	147	stimuli/animals2/lemur/animal_lemur02.jpg        	1	2	1	animal_lemur02.jpg   	animals2 	1	lemur     	23	lemur02     	231	alive    	1	moves	1	natural 	1	n	1	0        	 	0.0	0	89.7210774000268	89.8210640000179	0.099986599991098
101882	100	148	stimuli/animals2/bee/animal_bee06.jpg            	1	2	1	animal_bee06.jpg     	animals2 	1	bee       	0	bee06       	5	alive    	1	moves	1	natural 	1	n	0	0        	 	0.0	0	89.8710908999201	89.9710627000313	0.0999718001112342
102032	100	149	stimuli/plant/cactus/plant_cactus06.jpg          	1	2	1	plant_cactus06.jpg   	plant    	6	cactus    	4	cactus06    	45	alive    	1	still	0	natural 	1	n	0	1        	f	0.292104399995878	1	90.0210690998938	90.1210628000554	0.0999937001615763
102182	100	150	stimuli/animals2/bee/animal_bee10.jpg            	1	2	1	animal_bee10.jpg     	animals2 	1	bee       	0	bee10       	9	alive    	1	moves	1	natural 	1	n	0	0        	 	0.0	0	90.1710747999605	90.2710722000338	0.0999974000733346
102332	100	151	stimuli/plant2/moss/plant_moss03.jpg             	1	2	1	plant_moss03.jpg     	plant2   	7	moss      	25	moss03      	252	alive    	1	still	0	natural 	1	n	0	0        	 	0.0	0	90.3210795000196	90.4210725000594	0.0999930000398308
102482	100	152	stimuli/animals/horse/animal_horse04.jpg         	1	2	1	animal_horse04.jpg   	animals  	0	horse     	20	horse04     	203	alive    	1	moves	1	natural 	1	n	0	0        	 	0.0	0	90.4710951000452	90.5710851000622	0.0999900000169873
102632	100	153	stimuli/animals2/pigeon/animal_pigeon02.jpg      	1	2	1	animal_pigeon02.jpg  	animals2 	1	pigeon    	28	pigeon02    	281	alive    	1	moves	1	natural 	1	n	0	0        	 	0.0	0	90.6210992999841	90.7210788000375	0.0999795000534505
102782	100	154	stimuli/animals/horse/animal_horse06.jpg         	1	2	1	animal_horse06.jpg   	animals  	0	horse     	20	horse06     	205	alive    	1	moves	1	natural 	1	n	0	0        	 	0.0	0	90.7710887999274	90.8710795000661	0.0999907001387328
102932	100	155	stimuli/animals/cat/animal_cat07.jpg             	1	2	1	animal_cat07.jpg     	animals  	0	cat       	6	cat07       	66	alive    	1	moves	1	natural 	1	n	0	0        	 	0.0	0	90.9210916000884	91.0210847000126	0.0999930999241769
103082	100	156	stimuli/nonmovArt/mug/nma_mug10.jpg              	1	2	1	nma_mug10.jpg        	nonmovArt	4	mug       	26	mug10       	269	not_alive	0	still	0	artefact	0	n	0	0        	 	0.0	0	91.0710928000044	91.1710902999621	0.0999974999576807
103232	100	157	stimuli/plant2/clover/plant_clover07.jpg         	1	2	1	plant_clover07.jpg   	plant2   	7	clover    	9	clover07    	96	alive    	1	still	0	natural 	1	n	0	0        	 	0.0	0	91.2211066000164	91.3210944999009	0.0999878998845816
103382	100	158	stimuli/movArt/boat/ma_boat02.jpg                	1	2	1	ma_boat02.jpg        	movArt   	2	boat      	2	boat02      	21	not_alive	0	moves	1	artefact	0	n	0	0        	 	0.0	0	91.3711063000374	91.4710941999219	0.0999878998845816
103532	100	159	stimuli/nonmovArt/lock/nma_lock05.jpg            	1	2	1	nma_lock05.jpg       	nonmovArt	4	lock      	24	lock05      	244	not_alive	0	still	0	artefact	0	n	0	0        	 	0.0	0	91.5211163000204	91.6211121999659	0.0999958999454975
106532	100	160	stimuli/movNat/waves/mn_waves02.jpg              	1	3	1	mn_waves02.jpg       	movNat   	3	waves     	38	waves02     	381	not_alive	0	moves	1	natural 	1	n	0	0        	 	0.0	0	94.5211839000694	94.6211750998627	0.0999911997932941
106682	100	161	stimuli/nonmovNat/cliff/nmn_cliff03.jpg          	1	3	1	nmn_cliff03.jpg      	nonmovNat	5	cliff     	7	cliff03     	72	not_alive	0	still	0	natural 	1	n	0	0        	 	0.0	0	94.6711832999717	94.7711813000496	0.0999980000779033
106832	100	162	stimuli/nonmovNat/cliff/nmn_cliff02.jpg          	1	3	1	nmn_cliff02.jpg      	nonmovNat	5	cliff     	7	cliff02     	71	not_alive	0	still	0	natural 	1	n	0	0        	 	0.0	0	94.8211908000522	94.9211897999048	0.0999989998526871
106982	100	163	stimuli/plant/tree/plant_tree02.jpg              	1	3	1	plant_tree02.jpg     	plant    	6	tree      	35	tree02      	351	alive    	1	still	0	natural 	1	n	0	0        	 	0.0	0	94.9711913000792	95.0711836998816	0.0999923998024315
107132	100	164	stimuli/nonmovNat/shell/nmn_shell02.jpg          	1	3	1	nmn_shell02.jpg      	nonmovNat	5	shell     	32	shell02     	321	not_alive	0	still	0	natural 	1	n	0	0        	 	0.0	0	95.1211929998826	95.2212163000368	0.100023300154135
107282	100	165	stimuli/animals2/pigeon/animal_pigeon07.jpg      	1	3	1	animal_pigeon07.jpg  	animals2 	1	pigeon    	28	pigeon07    	286	alive    	1	moves	1	natural 	1	n	0	0        	 	0.0	0	95.2712079000194	95.37119049998	0.0999825999606401
107432	100	166	stimuli/animals/eagle/animal_eagle01.jpg         	1	3	1	animal_eagle01.jpg   	animals  	0	eagle     	13	eagle01     	130	alive    	1	moves	1	natural 	1	n	0	0        	 	0.0	0	95.4212018998805	95.5211956999265	0.0999938000459224
107582	100	167	stimuli/movNat/river/mn_river05.jpg              	1	3	1	mn_river05.jpg       	movNat   	3	river     	29	river05     	294	not_alive	0	moves	1	natural 	1	n	0	0        	 	0.0	0	95.5712057999335	95.6712102999445	0.100004500010982
107732	100	168	stimuli/movNat/river/mn_river09.jpg              	1	3	1	mn_river09.jpg       	movNat   	3	river     	29	river09     	298	not_alive	0	moves	1	natural 	1	n	0	0        	 	0.0	0	95.7212087998632	95.8212184000295	0.100009600166231
107882	100	169	stimuli/plant/grass/plant_grass05.jpg            	1	3	1	plant_grass05.jpg    	plant    	6	grass     	17	grass05     	174	alive    	1	still	0	natural 	1	n	0	0        	 	0.0	0	95.8712118999101	95.971229000017	0.100017100106925
108032	100	170	stimuli/plant2/lemontree/plant_lemontree08.jpg   	1	3	1	plant_lemontree08.jpg	plant2   	7	lemontree 	22	lemontree08 	227	alive    	1	still	0	natural 	1	n	0	0        	 	0.0	0	96.0212161000818	96.121210699901	0.0999945998191834
108182	100	171	stimuli/nonmovNat/crystal/nmn_crystal05.jpg      	1	3	1	nmn_crystal05.jpg    	nonmovNat	5	crystal   	10	crystal05   	104	not_alive	0	still	0	natural 	1	n	0	0        	 	0.0	0	96.1712195000146	96.2712127000559	0.0999932000413537
108332	100	172	stimuli/animals/cat/animal_cat05.jpg             	1	3	1	animal_cat05.jpg     	animals  	0	cat       	6	cat05       	64	alive    	1	moves	1	natural 	1	n	0	0        	 	0.0	0	96.3212291998789	96.4212195998989	0.0999904000200331
108482	100	173	stimuli/nonmovArt/headphones/nma_headphones02.jpg	1	3	1	nma_headphones02.jpg 	nonmovArt	4	headphones	18	headphones02	181	not_alive	0	still	0	artefact	0	n	0	0        	 	0.0	0	96.4712259999942	96.5712460998911	0.100020099896938
108632	100	174	stimuli/animals2/tiger/animal_tiger10.jpg        	1	3	1	animal_tiger10.jpg   	animals2 	1	tiger     	33	tiger10     	339	alive    	1	moves	1	natural 	1	n	0	0        	 	0.0	0	96.6212317999452	96.7212499000598	0.100018100114539
108782	100	175	stimuli/plant2/palmtree/plant_palmtree10.jpg     	1	3	1	plant_palmtree10.jpg 	plant2   	7	palmtree  	27	palmtree10  	279	alive    	1	still	0	natural 	1	n	0	0        	 	0.0	0	96.771235599881	96.8712281000335	0.0999925001524389
108932	100	176	stimuli/nonmovArt/headphones/nma_headphones01.jpg	1	3	1	nma_headphones01.jpg 	nonmovArt	4	headphones	18	headphones01	180	not_alive	0	still	0	artefact	0	n	0	0        	 	0.0	0	96.9212408000603	97.0212345998734	0.0999937998130918
109082	100	177	stimuli/animals2/whale/animal_whale09.jpg        	1	3	1	animal_whale09.jpg   	animals2 	1	whale     	39	whale09     	398	alive    	1	moves	1	natural 	1	n	0	0        	 	0.0	0	97.0712703999598	97.1712376999203	0.0999672999605536
109232	100	178	stimuli/plant/vine/plant_vine08.jpg              	1	3	1	plant_vine08.jpg     	plant    	6	vine      	36	vine08      	367	alive    	1	still	0	natural 	1	n	0	0        	 	0.0	0	97.2212471000384	97.321244499879	0.0999973998405039
109382	100	179	stimuli/movArt/bus/ma_bus06.jpg                  	1	3	1	ma_bus06.jpg         	movArt   	2	bus       	3	bus06       	35	not_alive	0	moves	1	artefact	0	n	0	0        	 	0.0	0	97.3712494999636	97.4712551999837	0.10000570002012
109532	100	180	stimuli/plant/tree/plant_tree01.jpg              	1	3	1	plant_tree01.jpg     	plant    	6	tree      	35	tree01      	350	alive    	1	still	0	natural 	1	n	0	0        	 	0.0	0	97.5212631998584	97.6212458999362	0.0999827000778168
109682	100	181	stimuli/movArt/boat/ma_boat03.jpg                	1	3	1	ma_boat03.jpg        	movArt   	2	boat      	2	boat03      	22	not_alive	0	moves	1	artefact	0	n	0	0        	 	0.0	0	97.6712710999418	97.7712522000074	0.0999811000656336
109832	100	182	stimuli/plant2/clover/plant_clover02.jpg         	1	3	1	plant_clover02.jpg   	plant2   	7	clover    	9	clover02    	91	alive    	1	still	0	natural 	1	n	0	0        	 	0.0	0	97.8212838999461	97.9212769998703	0.0999930999241769
109982	100	183	stimuli/movNat/fire/mn_fire02.jpg                	1	3	1	mn_fire02.jpg        	movNat   	3	fire      	15	fire02      	151	not_alive	0	moves	1	natural 	1	n	0	0        	 	0.0	0	97.9712646999396	98.0712647000328	0.100000000093132
110132	100	184	stimuli/movArt/train/ma_train08.jpg              	1	3	1	ma_train08.jpg       	movArt   	2	train     	34	train08     	347	not_alive	0	moves	1	artefact	0	n	0	0        	 	0.0	0	98.1212716998998	98.2212604000233	0.0999887001235038
110282	100	185	stimuli/movNat/hotspring/mn_hotspring04.jpg      	1	3	1	mn_hotspring04.jpg   	movNat   	3	hotspring 	21	hotspring04 	213	not_alive	0	moves	1	natural 	1	n	0	0        	 	0.0	0	98.2712687000166	98.3712653999682	0.0999966999515891
110432	100	186	stimuli/movArt/train/ma_train04.jpg              	1	3	1	ma_train04.jpg       	movArt   	2	train     	34	train04     	343	not_alive	0	moves	1	artefact	0	n	0	0        	 	0.0	0	98.421289900085	98.5212725999299	0.0999826998449862
110582	100	187	stimuli/nonmovNat/sand/nmn_sand04.jpg            	1	3	1	nmn_sand04.jpg       	nonmovNat	5	sand      	31	sand04      	313	not_alive	0	still	0	natural 	1	n	0	0        	 	0.0	0	98.5713003999554	98.6712718999479	0.0999714999925345
110732	100	188	stimuli/plant/cactus/plant_cactus02.jpg          	1	3	1	plant_cactus02.jpg   	plant    	6	cactus    	4	cactus02    	41	alive    	1	still	0	natural 	1	n	0	0        	 	0.0	0	98.7212831000798	98.8212786000222	0.0999954999424517
110882	100	189	stimuli/nonmovNat/sand/nmn_sand03.jpg            	1	3	1	nmn_sand03.jpg       	nonmovNat	5	sand      	31	sand03      	312	not_alive	0	still	0	natural 	1	n	0	0        	 	0.0	0	98.8712824999821	98.9712807999458	0.0999982999637723
111032	100	190	stimuli/movArt/bus/ma_bus04.jpg                  	1	3	1	ma_bus04.jpg         	movArt   	2	bus       	3	bus04       	33	not_alive	0	moves	1	artefact	0	n	0	0        	 	0.0	0	99.0212914999574	99.1212843998801	0.099992899922654
111182	100	191	stimuli/animals/horse/animal_horse10.jpg         	1	3	1	animal_horse10.jpg   	animals  	0	horse     	20	horse10     	209	alive    	1	moves	1	natural 	1	n	0	0        	 	0.0	0	99.1713018000591	99.2712856000289	0.0999837999697775
111332	100	192	stimuli/animals/cat/animal_cat07.jpg             	1	3	1	animal_cat07.jpg     	animals  	0	cat       	6	cat07       	66	alive    	1	moves	1	natural 	1	n	0	0        	 	0.0	0	99.3213001000695	99.4212915999815	0.0999914999119937
111482	100	193	stimuli/movArt/helicopter/ma_helicopter08.jpg    	1	3	1	ma_helicopter08.jpg  	movArt   	2	helicopter	19	helicopter08	197	not_alive	0	moves	1	artefact	0	n	1	0        	 	0.0	0	99.4712990999688	99.571296799928	0.0999976999592036
111632	100	194	stimuli/animals2/bee/animal_bee09.jpg            	1	3	1	animal_bee09.jpg     	animals2 	1	bee       	0	bee09       	8	alive    	1	moves	1	natural 	1	n	0	1        	f	0.250186000019312	1	99.6213044999167	99.721299600089	0.0999951001722366
111782	100	195	stimuli/nonmovArt/lock/nma_lock06.jpg            	1	3	1	nma_lock06.jpg       	nonmovArt	4	lock      	24	lock06      	245	not_alive	0	still	0	artefact	0	n	0	0        	 	0.0	0	99.7713095999788	99.8713006000034	0.0999910000246018
111932	100	196	stimuli/movNat/waterfall/mn_waterfall10.jpg      	1	3	1	mn_waterfall10.jpg   	movNat   	3	waterfall 	37	waterfall10 	379	not_alive	0	moves	1	natural 	1	n	0	0        	 	0.0	0	99.9213129000273	100.021305300063	0.0999924000352621
112082	100	197	stimuli/animals2/tiger/animal_tiger08.jpg        	1	3	1	animal_tiger08.jpg   	animals2 	1	tiger     	33	tiger08     	337	alive    	1	moves	1	natural 	1	n	0	0        	 	0.0	0	100.071314499946	100.171310799895	0.0999962999485433
112232	100	198	stimuli/movArt/train/ma_train02.jpg              	1	3	1	ma_train02.jpg       	movArt   	2	train     	34	train02     	341	not_alive	0	moves	1	artefact	0	n	0	0        	 	0.0	0	100.221320400015	100.321314699948	0.0999942999333143
112382	100	199	stimuli/nonmovNat/rock/nmn_rock04.jpg            	1	3	1	nmn_rock04.jpg       	nonmovNat	5	rock      	30	rock04      	303	not_alive	0	still	0	natural 	1	n	0	0        	 	0.0	0	100.371327199973	100.471315199975	0.0999880000017583
112532	100	200	stimuli/animals/dolphin/animal_dolphin04.jpg     	1	3	1	animal_dolphin04.jpg 	animals  	0	dolphin   	12	dolphin04   	123	alive    	1	moves	1	natural 	1	n	0	0        	 	0.0	0	100.521328300005	100.621323799947	0.0999954999424517
112682	100	201	stimuli/plant/grass/plant_grass08.jpg            	1	3	1	plant_grass08.jpg    	plant    	6	grass     	17	grass08     	177	alive    	1	still	0	natural 	1	n	0	0        	 	0.0	0	100.671329299919	100.771357999882	0.100028699962422
112832	100	202	stimuli/nonmovNat/shell/nmn_shell06.jpg          	1	3	1	nmn_shell06.jpg      	nonmovNat	5	shell     	32	shell06     	325	not_alive	0	still	0	natural 	1	n	0	0        	 	0.0	0	100.821334299864	100.921328299912	0.0999940000474453
112982	100	203	stimuli/nonmovArt/lock/nma_lock04.jpg            	1	3	1	nma_lock04.jpg       	nonmovArt	4	lock      	24	lock04      	243	not_alive	0	still	0	artefact	0	n	0	0        	 	0.0	0	100.971338100033	101.071332399966	0.0999942999333143
113132	100	204	stimuli/nonmovNat/rock/nmn_rock08.jpg            	1	3	1	nmn_rock08.jpg       	nonmovNat	5	rock      	30	rock08      	307	not_alive	0	still	0	natural 	1	n	0	0        	 	0.0	0	101.121347399894	101.221335500013	0.0999881001189351
113282	100	205	stimuli/nonmovNat/shell/nmn_shell03.jpg          	1	3	1	nmn_shell03.jpg      	nonmovNat	5	shell     	32	shell03     	322	not_alive	0	still	0	natural 	1	n	0	0        	 	0.0	0	101.271342599997	101.371354100062	0.100011500064284
113432	100	206	stimuli/movNat/hotspring/mn_hotspring09.jpg      	1	3	1	mn_hotspring09.jpg   	movNat   	3	hotspring 	21	hotspring09 	218	not_alive	0	moves	1	natural 	1	n	0	0        	 	0.0	0	101.421348300064	101.52137169987	0.10002339980565
113582	100	207	stimuli/plant2/palmtree/plant_palmtree08.jpg     	1	3	1	plant_palmtree08.jpg 	plant2   	7	palmtree  	27	palmtree08  	277	alive    	1	still	0	natural 	1	n	0	0        	 	0.0	0	101.571353599895	101.67134339991	0.0999898000154644
113732	100	208	stimuli/animals/eagle/animal_eagle05.jpg         	1	3	1	animal_eagle05.jpg   	animals  	0	eagle     	13	eagle05     	134	alive    	1	moves	1	natural 	1	n	0	0        	 	0.0	0	101.721357899951	101.821350099985	0.0999922000337392
113882	100	209	stimuli/plant2/fern/plant_fern06.jpg             	1	3	1	plant_fern06.jpg     	plant2   	7	fern      	14	fern06      	145	alive    	1	still	0	natural 	1	n	0	0        	 	0.0	0	101.871357300086	101.97135560005	0.0999982999637723
114032	100	210	stimuli/nonmovArt/clothespeg/nma_clothespeg06.jpg	1	3	1	nma_clothespeg06.jpg 	nonmovArt	4	clothespeg	8	clothespeg06	85	not_alive	0	still	0	artefact	0	n	0	0        	 	0.0	0	102.021363199921	102.121381100034	0.100017900113016
114182	100	211	stimuli/plant2/palmtree/plant_palmtree07.jpg     	1	3	1	plant_palmtree07.jpg 	plant2   	7	palmtree  	27	palmtree07  	276	alive    	1	still	0	natural 	1	n	1	0        	 	0.0	0	102.171367999865	102.271371799987	0.100003800122067
114332	100	212	stimuli/plant/flower/plant_flower04.jpg          	1	3	1	plant_flower04.jpg   	plant    	6	flower    	16	flower04    	163	alive    	1	still	0	natural 	1	n	0	1        	f	0.241968900198117	1	102.321369899902	102.421365499962	0.0999956000596285
114482	100	213	stimuli/nonmovNat/rock/nmn_rock04.jpg            	1	3	1	nmn_rock04.jpg       	nonmovNat	5	rock      	30	rock04      	303	not_alive	0	still	0	natural 	1	n	0	0        	 	0.0	0	102.47137090005	102.571382599883	0.100011699832976
114632	100	214	stimuli/nonmovArt/clothespeg/nma_clothespeg02.jpg	1	3	1	nma_clothespeg02.jpg 	nonmovArt	4	clothespeg	8	clothespeg02	81	not_alive	0	still	0	artefact	0	n	0	0        	 	0.0	0	102.621417999966	102.721373199951	0.0999551999848336
114782	100	215	stimuli/plant/vine/plant_vine05.jpg              	1	3	1	plant_vine05.jpg     	plant    	6	vine      	36	vine05      	364	alive    	1	still	0	natural 	1	n	0	0        	 	0.0	0	102.771384299966	102.871385300066	0.100001000100747
114932	100	216	stimuli/movNat/hotspring/mn_hotspring09.jpg      	1	3	1	mn_hotspring09.jpg   	movNat   	3	hotspring 	21	hotspring09 	218	not_alive	0	moves	1	natural 	1	n	0	0        	 	0.0	0	102.921386099886	103.021378000034	0.0999919001478702
115082	100	217	stimuli/nonmovArt/mug/nma_mug02.jpg              	1	3	1	nma_mug02.jpg        	nonmovArt	4	mug       	26	mug02       	261	not_alive	0	still	0	artefact	0	n	0	0        	 	0.0	0	103.071385999909	103.171381999971	0.0999960000626743
115232	100	218	stimuli/nonmovArt/bench/nma_bench06.jpg          	1	3	1	nma_bench06.jpg      	nonmovArt	4	bench     	1	bench06     	15	not_alive	0	still	0	artefact	0	n	0	0        	 	0.0	0	103.221410899889	103.321389399935	0.099978500045836
115382	100	219	stimuli/plant2/fern/plant_fern03.jpg             	1	3	1	plant_fern03.jpg     	plant2   	7	fern      	14	fern03      	142	alive    	1	still	0	natural 	1	n	0	0        	 	0.0	0	103.371425400022	103.471397799905	0.0999723998829722
115532	100	220	stimuli/animals2/lemur/animal_lemur05.jpg        	1	3	1	animal_lemur05.jpg   	animals2 	1	lemur     	23	lemur05     	234	alive    	1	moves	1	natural 	1	n	0	0        	 	0.0	0	103.521400100086	103.621394200018	0.0999940999317914
115682	100	221	stimuli/nonmovNat/cliff/nmn_cliff07.jpg          	1	3	1	nmn_cliff07.jpg      	nonmovNat	5	cliff     	7	cliff07     	76	not_alive	0	still	0	natural 	1	n	0	0        	 	0.0	0	103.671400999883	103.771398999961	0.0999980000779033
115832	100	222	stimuli/nonmovArt/clothespeg/nma_clothespeg10.jpg	1	3	1	nma_clothespeg10.jpg 	nonmovArt	4	clothespeg	8	clothespeg10	89	not_alive	0	still	0	artefact	0	n	0	0        	 	0.0	0	103.821407699957	103.921404399909	0.0999966999515891
115982	100	223	stimuli/nonmovNat/crystal/nmn_crystal02.jpg      	1	3	1	nmn_crystal02.jpg    	nonmovNat	5	crystal   	10	crystal02   	101	not_alive	0	still	0	natural 	1	n	0	0        	 	0.0	0	103.971429399913	104.07140149991	0.0999720999971032
116133	100	224	stimuli/animals/dolphin/animal_dolphin03.jpg     	1	3	1	animal_dolphin03.jpg 	animals  	0	dolphin   	12	dolphin03   	122	alive    	1	moves	1	natural 	1	n	0	0        	 	0.0	0	104.121439500013	104.221408299869	0.0999687998555601
116282	100	225	stimuli/plant/tree/plant_tree09.jpg              	1	3	1	plant_tree09.jpg     	plant    	6	tree      	35	tree09      	358	alive    	1	still	0	natural 	1	n	0	0        	 	0.0	0	104.271414299961	104.371412199922	0.0999978999607265
116432	100	226	stimuli/plant2/moss/plant_moss09.jpg             	1	3	1	plant_moss09.jpg     	plant2   	7	moss      	25	moss09      	258	alive    	1	still	0	natural 	1	n	0	0        	 	0.0	0	104.421422000043	104.521414299961	0.0999922999180853
116582	100	227	stimuli/animals2/tiger/animal_tiger07.jpg        	1	3	1	animal_tiger07.jpg   	animals2 	1	tiger     	33	tiger07     	336	alive    	1	moves	1	natural 	1	n	0	0        	 	0.0	0	104.571427099872	104.671427499969	0.100000400096178
116733	100	228	stimuli/nonmovArt/bench/nma_bench05.jpg          	1	3	1	nma_bench05.jpg      	nonmovArt	4	bench     	1	bench05     	14	not_alive	0	still	0	artefact	0	n	0	0        	 	0.0	0	104.7214408	104.821424100082	0.0999833000823855
116883	100	229	stimuli/movArt/boat/ma_boat08.jpg                	1	3	1	ma_boat08.jpg        	movArt   	2	boat      	2	boat08      	27	not_alive	0	moves	1	artefact	0	n	0	0        	 	0.0	0	104.871440700023	104.971438899869	0.0999981998465955
117033	100	230	stimuli/movNat/fire/mn_fire03.jpg                	1	3	1	mn_fire03.jpg        	movNat   	3	fire      	15	fire03      	152	not_alive	0	moves	1	natural 	1	n	0	0        	 	0.0	0	105.021436200012	105.12142989994	0.0999936999287456
117183	100	231	stimuli/movNat/waves/mn_waves05.jpg              	1	3	1	mn_waves05.jpg       	movNat   	3	waves     	38	waves05     	384	not_alive	0	moves	1	natural 	1	n	0	0        	 	0.0	0	105.17144350009	105.271431599976	0.0999880998861045
117333	100	232	stimuli/plant/flower/plant_flower02.jpg          	1	3	1	plant_flower02.jpg   	plant    	6	flower    	16	flower02    	161	alive    	1	still	0	natural 	1	n	0	0        	 	0.0	0	105.321445100009	105.421439900063	0.0999948000535369
117483	100	233	stimuli/animals/eagle/animal_eagle10.jpg         	1	3	1	animal_eagle10.jpg   	animals  	0	eagle     	13	eagle10     	139	alive    	1	moves	1	natural 	1	n	0	0        	 	0.0	0	105.47145959991	105.571442199871	0.0999825999606401
117633	100	234	stimuli/animals/dog/animal_dog03.jpg             	1	3	1	animal_dog03.jpg     	animals  	0	dog       	11	dog03       	112	alive    	1	moves	1	natural 	1	n	0	0        	 	0.0	0	105.621452799998	105.721445099916	0.0999922999180853
117783	100	235	stimuli/plant2/clover/plant_clover08.jpg         	1	3	1	plant_clover08.jpg   	plant2   	7	clover    	9	clover08    	97	alive    	1	still	0	natural 	1	n	0	0        	 	0.0	0	105.771455900045	105.871447399957	0.0999914999119937
117933	100	236	stimuli/movArt/car/ma_car08.jpg                  	1	3	1	ma_car08.jpg         	movArt   	2	car       	5	car08       	57	not_alive	0	moves	1	artefact	0	n	0	0        	 	0.0	0	105.921468799934	106.021455599926	0.0999867999926209
118083	100	237	stimuli/movArt/car/ma_car02.jpg                  	1	3	1	ma_car02.jpg         	movArt   	2	car       	5	car02       	51	not_alive	0	moves	1	artefact	0	n	0	0        	 	0.0	0	106.071460899897	106.171456000069	0.0999951001722366
118233	100	238	stimuli/animals/dolphin/animal_dolphin10.jpg     	1	3	1	animal_dolphin10.jpg 	animals  	0	dolphin   	12	dolphin10   	129	alive    	1	moves	1	natural 	1	n	0	0        	 	0.0	0	106.221477800049	106.32147570001	0.0999978999607265
118383	100	239	stimuli/animals2/whale/animal_whale02.jpg        	1	3	1	animal_whale02.jpg   	animals2 	1	whale     	39	whale02     	391	alive    	1	moves	1	natural 	1	n	0	0        	 	0.0	0	106.371469100006	106.471473200014	0.100004100007936
122849	100	240	stimuli/plant2/fern/plant_fern10.jpg             	1	4	1	plant_fern10.jpg     	plant2   	7	fern      	14	fern10      	149	alive    	1	still	0	natural 	1	n	0	0        	 	0.0	0	110.83825260005	110.938241699943	0.099989099893719
122999	100	241	stimuli/animals2/whale/animal_whale02.jpg        	1	4	1	animal_whale02.jpg   	animals2 	1	whale     	39	whale02     	391	alive    	1	moves	1	natural 	1	n	0	0        	 	0.0	0	110.988251300063	111.088249400025	0.0999980999622494
123149	100	242	stimuli/animals2/tiger/animal_tiger02.jpg        	1	4	1	animal_tiger02.jpg   	animals2 	1	tiger     	33	tiger02     	331	alive    	1	moves	1	natural 	1	n	0	0        	 	0.0	0	111.138270800002	111.238246900029	0.0999761000275612
123299	100	243	stimuli/movArt/train/ma_train01.jpg              	1	4	1	ma_train01.jpg       	movArt   	2	train     	34	train01     	340	not_alive	0	moves	1	artefact	0	n	0	0        	 	0.0	0	111.288257699925	111.38825219986	0.0999944999348372
123449	100	244	stimuli/movArt/boat/ma_boat05.jpg                	1	4	1	ma_boat05.jpg        	movArt   	2	boat      	2	boat05      	24	not_alive	0	moves	1	artefact	0	n	0	0        	 	0.0	0	111.43826090009	111.53827619995	0.100015299860388
123599	100	245	stimuli/animals/dog/animal_dog02.jpg             	1	4	1	animal_dog02.jpg     	animals  	0	dog       	11	dog02       	111	alive    	1	moves	1	natural 	1	n	0	0        	 	0.0	0	111.588276099879	111.688258399954	0.099982300074771
123749	100	246	stimuli/animals2/pigeon/animal_pigeon06.jpg      	1	4	1	animal_pigeon06.jpg  	animals2 	1	pigeon    	28	pigeon06    	285	alive    	1	moves	1	natural 	1	n	0	0        	 	0.0	0	111.738266699947	111.838262599893	0.0999958999454975
123899	100	247	stimuli/animals/horse/animal_horse06.jpg         	1	4	1	animal_horse06.jpg   	animals  	0	horse     	20	horse06     	205	alive    	1	moves	1	natural 	1	n	0	0        	 	0.0	0	111.888273600023	111.988264800049	0.0999912000261247
124049	100	248	stimuli/movNat/hotspring/mn_hotspring05.jpg      	1	4	1	mn_hotspring05.jpg   	movNat   	3	hotspring 	21	hotspring05 	214	not_alive	0	moves	1	natural 	1	n	0	0        	 	0.0	0	112.038276100066	112.138268999988	0.099992899922654
124199	100	249	stimuli/animals/dog/animal_dog02.jpg             	1	4	1	animal_dog02.jpg     	animals  	0	dog       	11	dog02       	111	alive    	1	moves	1	natural 	1	n	0	0        	 	0.0	0	112.188278799877	112.28827410005	0.0999953001737595
124349	100	250	stimuli/movNat/river/mn_river06.jpg              	1	4	1	mn_river06.jpg       	movNat   	3	river     	29	river06     	295	not_alive	0	moves	1	natural 	1	n	0	0        	 	0.0	0	112.338284800062	112.438274899963	0.0999900999013334
124499	100	251	stimuli/nonmovNat/sand/nmn_sand03.jpg            	1	4	1	nmn_sand03.jpg       	nonmovNat	5	sand      	31	sand03      	312	not_alive	0	still	0	natural 	1	n	0	0        	 	0.0	0	112.488287499873	112.588279000018	0.0999915001448244
124649	100	252	stimuli/movArt/bus/ma_bus06.jpg                  	1	4	1	ma_bus06.jpg         	movArt   	2	bus       	3	bus06       	35	not_alive	0	moves	1	artefact	0	n	0	0        	 	0.0	0	112.638302299893	112.738284900086	0.0999826001934707
124799	100	253	stimuli/nonmovNat/cliff/nmn_cliff06.jpg          	1	4	1	nmn_cliff06.jpg      	nonmovNat	5	cliff     	7	cliff06     	75	not_alive	0	still	0	natural 	1	n	0	0        	 	0.0	0	112.788296499988	112.888298099861	0.100001599872485
124949	100	254	stimuli/plant2/clover/plant_clover07.jpg         	1	4	1	plant_clover07.jpg   	plant2   	7	clover    	9	clover07    	96	alive    	1	still	0	natural 	1	n	0	0        	 	0.0	0	112.938298400026	113.038292600075	0.0999942000489682
125099	100	255	stimuli/nonmovArt/clothespeg/nma_clothespeg02.jpg	1	4	1	nma_clothespeg02.jpg 	nonmovArt	4	clothespeg	8	clothespeg02	81	not_alive	0	still	0	artefact	0	n	0	0        	 	0.0	0	113.088300900068	113.188320900081	0.100020000012591
125249	100	256	stimuli/plant2/clover/plant_clover02.jpg         	1	4	1	plant_clover02.jpg   	plant2   	7	clover    	9	clover02    	91	alive    	1	still	0	natural 	1	n	0	0        	 	0.0	0	113.238304799888	113.338298199931	0.0999934000428766
125399	100	257	stimuli/movArt/car/ma_car08.jpg                  	1	4	1	ma_car08.jpg         	movArt   	2	car       	5	car08       	57	not_alive	0	moves	1	artefact	0	n	0	0        	 	0.0	0	113.388308000052	113.488303299993	0.0999952999409288
125549	100	258	stimuli/movNat/river/mn_river03.jpg              	1	4	1	mn_river03.jpg       	movNat   	3	river     	29	river03     	292	not_alive	0	moves	1	natural 	1	n	0	0        	 	0.0	0	113.538313299883	113.638309299946	0.0999960000626743
125699	100	259	stimuli/plant2/moss/plant_moss01.jpg             	1	4	1	plant_moss01.jpg     	plant2   	7	moss      	25	moss01      	250	alive    	1	still	0	natural 	1	n	0	0        	 	0.0	0	113.68831639993	113.788310199976	0.0999938000459224
125849	100	260	stimuli/animals2/lemur/animal_lemur10.jpg        	1	4	1	animal_lemur10.jpg   	animals2 	1	lemur     	23	lemur10     	239	alive    	1	moves	1	natural 	1	n	0	0        	 	0.0	0	113.838321399875	113.938314700034	0.0999933001585305
125999	100	261	stimuli/plant/tree/plant_tree04.jpg              	1	4	1	plant_tree04.jpg     	plant    	6	tree      	35	tree04      	353	alive    	1	still	0	natural 	1	n	0	0        	 	0.0	0	113.988324699923	114.088318899972	0.0999942000489682
126149	100	262	stimuli/plant2/moss/plant_moss03.jpg             	1	4	1	plant_moss03.jpg     	plant2   	7	moss      	25	moss03      	252	alive    	1	still	0	natural 	1	n	0	0        	 	0.0	0	114.138337499928	114.238321000012	0.0999835000839084
126299	100	263	stimuli/animals/dolphin/animal_dolphin09.jpg     	1	4	1	animal_dolphin09.jpg 	animals  	0	dolphin   	12	dolphin09   	128	alive    	1	moves	1	natural 	1	n	0	0        	 	0.0	0	114.288330999902	114.388324900065	0.0999939001630992
126449	100	264	stimuli/movNat/hotspring/mn_hotspring01.jpg      	1	4	1	mn_hotspring01.jpg   	movNat   	3	hotspring 	21	hotspring01 	210	not_alive	0	moves	1	natural 	1	n	0	0        	 	0.0	0	114.438334899954	114.53832679987	0.0999918999150395
126599	100	265	stimuli/movArt/train/ma_train09.jpg              	1	4	1	ma_train09.jpg       	movArt   	2	train     	34	train09     	348	not_alive	0	moves	1	artefact	0	n	0	0        	 	0.0	0	114.588341000024	114.688333299942	0.0999922999180853
126749	100	266	stimuli/nonmovArt/headphones/nma_headphones10.jpg	1	4	1	nma_headphones10.jpg 	nonmovArt	4	headphones	18	headphones10	189	not_alive	0	still	0	artefact	0	n	0	0        	 	0.0	0	114.738343500067	114.838338200003	0.0999946999363601
126899	100	267	stimuli/nonmovNat/shell/nmn_shell10.jpg          	1	4	1	nmn_shell10.jpg      	nonmovNat	5	shell     	32	shell10     	329	not_alive	0	still	0	natural 	1	n	0	0        	 	0.0	0	114.888347300002	114.988338599913	0.0999912999104708
127049	100	268	stimuli/movArt/bus/ma_bus09.jpg                  	1	4	1	ma_bus09.jpg         	movArt   	2	bus       	3	bus09       	38	not_alive	0	moves	1	artefact	0	n	0	0        	 	0.0	0	115.038350000046	115.138342899969	0.099992899922654
127199	100	269	stimuli/nonmovArt/mug/nma_mug04.jpg              	1	4	1	nma_mug04.jpg        	nonmovArt	4	mug       	26	mug04       	263	not_alive	0	still	0	artefact	0	n	0	0        	 	0.0	0	115.188352999976	115.288346000016	0.0999930000398308
127349	100	270	stimuli/plant/flower/plant_flower08.jpg          	1	4	1	plant_flower08.jpg   	plant    	6	flower    	16	flower08    	167	alive    	1	still	0	natural 	1	n	0	0        	 	0.0	0	115.338359900052	115.438354099868	0.0999941998161376
127499	100	271	stimuli/movArt/train/ma_train04.jpg              	1	4	1	ma_train04.jpg       	movArt   	2	train     	34	train04     	343	not_alive	0	moves	1	artefact	0	n	0	0        	 	0.0	0	115.488371999934	115.588354399893	0.0999823999591172
127649	100	272	stimuli/nonmovArt/lock/nma_lock06.jpg            	1	4	1	nma_lock06.jpg       	nonmovArt	4	lock      	24	lock06      	245	not_alive	0	still	0	artefact	0	n	0	0        	 	0.0	0	115.638365000021	115.738357800059	0.0999928000383079
127799	100	273	stimuli/nonmovArt/headphones/nma_headphones06.jpg	1	4	1	nma_headphones06.jpg 	nonmovArt	4	headphones	18	headphones06	185	not_alive	0	still	0	artefact	0	n	0	0        	 	0.0	0	115.788368999958	115.888362199999	0.0999932000413537
127949	100	274	stimuli/animals/dog/animal_dog09.jpg             	1	4	1	animal_dog09.jpg     	animals  	0	dog       	11	dog09       	118	alive    	1	moves	1	natural 	1	n	0	0        	 	0.0	0	115.938372300006	116.038365999935	0.0999936999287456
128099	100	275	stimuli/plant2/lemontree/plant_lemontree02.jpg   	1	4	1	plant_lemontree02.jpg	plant2   	7	lemontree 	22	lemontree02 	221	alive    	1	still	0	natural 	1	n	0	0        	 	0.0	0	116.088374600047	116.188367400086	0.0999928000383079
128249	100	276	stimuli/movNat/waves/mn_waves01.jpg              	1	4	1	mn_waves01.jpg       	movNat   	3	waves     	38	waves01     	380	not_alive	0	moves	1	natural 	1	n	0	0        	 	0.0	0	116.238379899878	116.338384700008	0.100004800129682
128399	100	277	stimuli/animals/cat/animal_cat01.jpg             	1	4	1	animal_cat01.jpg     	animals  	0	cat       	6	cat01       	60	alive    	1	moves	1	natural 	1	n	0	0        	 	0.0	0	116.388383100042	116.488388000056	0.100004900014028
128549	100	278	stimuli/plant2/lemontree/plant_lemontree01.jpg   	1	4	1	plant_lemontree01.jpg	plant2   	7	lemontree 	22	lemontree01 	220	alive    	1	still	0	natural 	1	n	1	0        	 	0.0	0	116.538385699969	116.638380799908	0.0999950999394059
128699	100	279	stimuli/plant2/fern/plant_fern05.jpg             	1	4	1	plant_fern05.jpg     	plant2   	7	fern      	14	fern05      	144	alive    	1	still	0	natural 	1	n	0	0        	 	0.0	0	116.688392400043	116.788386899978	0.0999944999348372
128849	100	280	stimuli/movArt/car/ma_car03.jpg                  	1	4	1	ma_car03.jpg         	movArt   	2	car       	5	car03       	52	not_alive	0	moves	1	artefact	0	n	0	1        	f	0.392027199966833	1	116.838403600035	116.938391899923	0.0999882998876274
128999	100	281	stimuli/movNat/waterfall/mn_waterfall02.jpg      	1	4	1	mn_waterfall02.jpg   	movNat   	3	waterfall 	37	waterfall02 	371	not_alive	0	moves	1	natural 	1	n	0	0        	 	0.0	0	116.988398700021	117.088392500067	0.0999938000459224
129149	100	282	stimuli/movArt/boat/ma_boat07.jpg                	1	4	1	ma_boat07.jpg        	movArt   	2	boat      	2	boat07      	26	not_alive	0	moves	1	artefact	0	n	1	0        	 	0.0	0	117.138400400057	117.238392899977	0.0999924999196082
129299	100	283	stimuli/animals/cat/animal_cat05.jpg             	1	4	1	animal_cat05.jpg     	animals  	0	cat       	6	cat05       	64	alive    	1	moves	1	natural 	1	n	0	0        	 	0.0	0	117.288404499879	117.388398200041	0.0999937001615763
129449	100	284	stimuli/nonmovNat/rock/nmn_rock05.jpg            	1	4	1	nmn_rock05.jpg       	nonmovNat	5	rock      	30	rock05      	304	not_alive	0	still	0	natural 	1	n	0	0        	 	0.0	0	117.438408700051	117.538405299885	0.0999965998344123
129599	100	285	stimuli/plant/grass/plant_grass03.jpg            	1	4	1	plant_grass03.jpg    	plant    	6	grass     	17	grass03     	172	alive    	1	still	0	natural 	1	n	0	1        	f	0.44217860000208	1	117.588416199898	117.688405999914	0.0999898000154644
129749	100	286	stimuli/nonmovNat/shell/nmn_shell01.jpg          	1	4	1	nmn_shell01.jpg      	nonmovNat	5	shell     	32	shell01     	320	not_alive	0	still	0	natural 	1	n	0	0        	 	0.0	0	117.738418000052	117.838410699973	0.0999926999211311
129899	100	287	stimuli/movNat/waterfall/mn_waterfall02.jpg      	1	4	1	mn_waterfall02.jpg   	movNat   	3	waterfall 	37	waterfall02 	371	not_alive	0	moves	1	natural 	1	n	0	0        	 	0.0	0	117.888429200044	117.988414000021	0.099984799977392
130049	100	288	stimuli/plant2/palmtree/plant_palmtree04.jpg     	1	4	1	plant_palmtree04.jpg 	plant2   	7	palmtree  	27	palmtree04  	273	alive    	1	still	0	natural 	1	n	0	0        	 	0.0	0	118.038423999911	118.138422499876	0.0999984999652952
130199	100	289	stimuli/plant2/clover/plant_clover04.jpg         	1	4	1	plant_clover04.jpg   	plant2   	7	clover    	9	clover04    	93	alive    	1	still	0	natural 	1	n	0	0        	 	0.0	0	118.188428600086	118.288418899989	0.0999902999028564
130349	100	290	stimuli/nonmovArt/bench/nma_bench09.jpg          	1	4	1	nma_bench09.jpg      	nonmovArt	4	bench     	1	bench09     	18	not_alive	0	still	0	artefact	0	n	0	0        	 	0.0	0	118.338432699908	118.438425400062	0.0999927001539618
130499	100	291	stimuli/nonmovArt/bench/nma_bench04.jpg          	1	4	1	nma_bench04.jpg      	nonmovArt	4	bench     	1	bench04     	13	not_alive	0	still	0	artefact	0	n	0	0        	 	0.0	0	118.488432799932	118.588427099865	0.0999942999333143
130650	100	292	stimuli/animals/dolphin/animal_dolphin08.jpg     	1	4	1	animal_dolphin08.jpg 	animals  	0	dolphin   	12	dolphin08   	127	alive    	1	moves	1	natural 	1	n	0	0        	 	0.0	0	118.638446700061	118.738430300029	0.0999835999682546
130800	100	293	stimuli/nonmovNat/sand/nmn_sand10.jpg            	1	4	1	nmn_sand10.jpg       	nonmovNat	5	sand      	31	sand10      	319	not_alive	0	still	0	natural 	1	n	0	0        	 	0.0	0	118.788442000048	118.888444500044	0.100002499995753
130950	100	294	stimuli/nonmovArt/bench/nma_bench06.jpg          	1	4	1	nma_bench06.jpg      	nonmovArt	4	bench     	1	bench06     	15	not_alive	0	still	0	artefact	0	n	0	0        	 	0.0	0	118.938444599975	119.038440600038	0.0999960000626743
131100	100	295	stimuli/nonmovArt/lock/nma_lock08.jpg            	1	4	1	nma_lock08.jpg       	nonmovArt	4	lock      	24	lock08      	247	not_alive	0	still	0	artefact	0	n	0	0        	 	0.0	0	119.08845219994	119.18846399989	0.100011799950153
131250	100	296	stimuli/movNat/waves/mn_waves06.jpg              	1	4	1	mn_waves06.jpg       	movNat   	3	waves     	38	waves06     	385	not_alive	0	moves	1	natural 	1	n	0	0        	 	0.0	0	119.238451800076	119.338447900023	0.0999960999470204
131400	100	297	stimuli/movArt/helicopter/ma_helicopter04.jpg    	1	4	1	ma_helicopter04.jpg  	movArt   	2	helicopter	19	helicopter04	193	not_alive	0	moves	1	artefact	0	n	0	0        	 	0.0	0	119.388456899906	119.488442000002	0.0999851000960916
131550	100	298	stimuli/plant2/fern/plant_fern02.jpg             	1	4	1	plant_fern02.jpg     	plant2   	7	fern      	14	fern02      	141	alive    	1	still	0	natural 	1	n	0	0        	 	0.0	0	119.538459599949	119.638459899928	0.100000299979001
131700	100	299	stimuli/animals/horse/animal_horse01.jpg         	1	4	1	animal_horse01.jpg   	animals  	0	horse     	20	horse01     	200	alive    	1	moves	1	natural 	1	n	1	0        	 	0.0	0	119.688464599894	119.788457700051	0.0999931001570076
131850	100	300	stimuli/movNat/fire/mn_fire03.jpg                	1	4	1	mn_fire03.jpg        	movNat   	3	fire      	15	fire03      	152	not_alive	0	moves	1	natural 	1	n	0	0        	 	0.0	0	119.838470299961	119.93846049998	0.0999902000185102
132000	100	301	stimuli/plant/cactus/plant_cactus10.jpg          	1	4	1	plant_cactus10.jpg   	plant    	6	cactus    	4	cactus10    	49	alive    	1	still	0	natural 	1	n	0	1        	f	0.391974800033495	1	119.988471699879	120.088465800043	0.0999941001646221
132150	100	302	stimuli/nonmovNat/cliff/nmn_cliff06.jpg          	1	4	1	nmn_cliff06.jpg      	nonmovNat	5	cliff     	7	cliff06     	75	not_alive	0	still	0	natural 	1	n	0	0        	 	0.0	0	120.13847450004	120.238470099866	0.0999955998267978
132300	100	303	stimuli/movNat/fire/mn_fire05.jpg                	1	4	1	mn_fire05.jpg        	movNat   	3	fire      	15	fire05      	154	not_alive	0	moves	1	natural 	1	n	0	0        	 	0.0	0	120.288479299983	120.388487400021	0.100008100038394
132450	100	304	stimuli/plant/grass/plant_grass05.jpg            	1	4	1	plant_grass05.jpg    	plant    	6	grass     	17	grass05     	174	alive    	1	still	0	natural 	1	n	0	0        	 	0.0	0	120.43848189991	120.538475099951	0.0999932000413537
132600	100	305	stimuli/movNat/waves/mn_waves06.jpg              	1	4	1	mn_waves06.jpg       	movNat   	3	waves     	38	waves06     	385	not_alive	0	moves	1	natural 	1	n	0	0        	 	0.0	0	120.58848590008	120.688480499899	0.0999945998191834
132750	100	306	stimuli/animals2/tiger/animal_tiger09.jpg        	1	4	1	animal_tiger09.jpg   	animals2 	1	tiger     	33	tiger09     	338	alive    	1	moves	1	natural 	1	n	1	0        	 	0.0	0	120.738488100003	120.838483599946	0.0999954999424517
132900	100	307	stimuli/nonmovNat/rock/nmn_rock07.jpg            	1	4	1	nmn_rock07.jpg       	nonmovNat	5	rock      	30	rock07      	306	not_alive	0	still	0	natural 	1	n	0	0        	 	0.0	0	120.888494600076	120.988494900055	0.100000299979001
133050	100	308	stimuli/plant2/palmtree/plant_palmtree03.jpg     	1	4	1	plant_palmtree03.jpg 	plant2   	7	palmtree  	27	palmtree03  	272	alive    	1	still	0	natural 	1	n	0	1        	f	0.391994399949908	1	121.038512900006	121.138489899924	0.0999769999179989
133200	100	309	stimuli/animals2/whale/animal_whale06.jpg        	1	4	1	animal_whale06.jpg   	animals2 	1	whale     	39	whale06     	395	alive    	1	moves	1	natural 	1	n	0	0        	 	0.0	0	121.188500900054	121.288498099893	0.099997199838981
133350	100	310	stimuli/plant/vine/plant_vine07.jpg              	1	4	1	plant_vine07.jpg     	plant    	6	vine      	36	vine07      	366	alive    	1	still	0	natural 	1	n	0	0        	 	0.0	0	121.338504399871	121.438495999901	0.0999916000291705
133500	100	311	stimuli/nonmovArt/clothespeg/nma_clothespeg05.jpg	1	4	1	nma_clothespeg05.jpg 	nonmovArt	4	clothespeg	8	clothespeg05	84	not_alive	0	still	0	artefact	0	n	0	0        	 	0.0	0	121.488509800052	121.588501099963	0.0999912999104708
133650	100	312	stimuli/movArt/helicopter/ma_helicopter05.jpg    	1	4	1	ma_helicopter05.jpg  	movArt   	2	helicopter	19	helicopter05	194	not_alive	0	moves	1	artefact	0	n	0	0        	 	0.0	0	121.638510700082	121.738513699966	0.100002999883145
133800	100	313	stimuli/nonmovNat/crystal/nmn_crystal10.jpg      	1	4	1	nmn_crystal10.jpg    	nonmovNat	5	crystal   	10	crystal10   	109	not_alive	0	still	0	natural 	1	n	0	0        	 	0.0	0	121.788516900036	121.88850859995	0.0999916999135166
133950	100	314	stimuli/nonmovNat/cliff/nmn_cliff07.jpg          	1	4	1	nmn_cliff07.jpg      	nonmovNat	5	cliff     	7	cliff07     	76	not_alive	0	still	0	natural 	1	n	0	0        	 	0.0	0	121.938518499956	122.038512799889	0.0999942999333143
134100	100	315	stimuli/movNat/river/mn_river07.jpg              	1	4	1	mn_river07.jpg       	movNat   	3	river     	29	river07     	296	not_alive	0	moves	1	natural 	1	n	0	0        	 	0.0	0	122.088520699879	122.188515299931	0.099994600052014
134250	100	316	stimuli/plant/cactus/plant_cactus01.jpg          	1	4	1	plant_cactus01.jpg   	plant    	6	cactus    	4	cactus01    	40	alive    	1	still	0	natural 	1	n	0	0        	 	0.0	0	122.238527999958	122.338517900091	0.0999899001326412
134400	100	317	stimuli/plant/tree/plant_tree05.jpg              	1	4	1	plant_tree05.jpg     	plant    	6	tree      	35	tree05      	354	alive    	1	still	0	natural 	1	n	0	0        	 	0.0	0	122.388530799886	122.488523100037	0.099992300150916
134550	100	318	stimuli/nonmovArt/clothespeg/nma_clothespeg09.jpg	1	4	1	nma_clothespeg09.jpg 	nonmovArt	4	clothespeg	8	clothespeg09	88	not_alive	0	still	0	artefact	0	n	0	0        	 	0.0	0	122.538532699924	122.638522899942	0.0999902000185102
134700	100	319	stimuli/plant/vine/plant_vine04.jpg              	1	4	1	plant_vine04.jpg     	plant    	6	vine      	36	vine04      	363	alive    	1	still	0	natural 	1	n	0	0        	 	0.0	0	122.688538099872	122.788529699901	0.0999916000291705
136833	100	320	stimuli/animals/eagle/animal_eagle08.jpg         	1	5	1	animal_eagle08.jpg   	animals  	0	eagle     	13	eagle08     	137	alive    	1	moves	1	natural 	1	n	0	0        	 	0.0	0	124.821927299956	124.921919199871	0.0999918999150395
136983	100	321	stimuli/movArt/car/ma_car03.jpg                  	1	5	1	ma_car03.jpg         	movArt   	2	car       	5	car03       	52	not_alive	0	moves	1	artefact	0	n	0	0        	 	0.0	0	124.97192530008	125.071913799969	0.0999884998891503
137133	100	322	stimuli/movArt/helicopter/ma_helicopter06.jpg    	1	5	1	ma_helicopter06.jpg  	movArt   	2	helicopter	19	helicopter06	195	not_alive	0	moves	1	artefact	0	n	0	0        	 	0.0	0	125.121926499996	125.221922500059	0.0999960000626743
137283	100	323	stimuli/nonmovNat/crystal/nmn_crystal06.jpg      	1	5	1	nmn_crystal06.jpg    	nonmovNat	5	crystal   	10	crystal06   	105	not_alive	0	still	0	natural 	1	n	0	0        	 	0.0	0	125.271925899899	125.371923299972	0.0999974000733346
137433	100	324	stimuli/animals2/bee/animal_bee02.jpg            	1	5	1	animal_bee02.jpg     	animals2 	1	bee       	0	bee02       	1	alive    	1	moves	1	natural 	1	n	0	0        	 	0.0	0	125.421933299862	125.521925299894	0.0999920000322163
137583	100	325	stimuli/animals2/tiger/animal_tiger03.jpg        	1	5	1	animal_tiger03.jpg   	animals2 	1	tiger     	33	tiger03     	332	alive    	1	moves	1	natural 	1	n	0	0        	 	0.0	0	125.571934399894	125.671928399941	0.0999940000474453
137733	100	326	stimuli/plant2/palmtree/plant_palmtree10.jpg     	1	5	1	plant_palmtree10.jpg 	plant2   	7	palmtree  	27	palmtree10  	279	alive    	1	still	0	natural 	1	n	0	0        	 	0.0	0	125.721937099937	125.821932899998	0.0999958000611514
137883	100	327	stimuli/animals/eagle/animal_eagle07.jpg         	1	5	1	animal_eagle07.jpg   	animals  	0	eagle     	13	eagle07     	136	alive    	1	moves	1	natural 	1	n	0	0        	 	0.0	0	125.871945299907	125.97193609993	0.0999908000230789
138033	100	328	stimuli/nonmovNat/sand/nmn_sand03.jpg            	1	5	1	nmn_sand03.jpg       	nonmovNat	5	sand      	31	sand03      	312	not_alive	0	still	0	natural 	1	n	0	0        	 	0.0	0	126.02194659994	126.121939799981	0.0999932000413537
138183	100	329	stimuli/movArt/bus/ma_bus08.jpg                  	1	5	1	ma_bus08.jpg         	movArt   	2	bus       	3	bus08       	37	not_alive	0	moves	1	artefact	0	n	0	0        	 	0.0	0	126.171951299999	126.271941100014	0.0999898000154644
138333	100	330	stimuli/movArt/boat/ma_boat06.jpg                	1	5	1	ma_boat06.jpg        	movArt   	2	boat      	2	boat06      	25	not_alive	0	moves	1	artefact	0	n	0	0        	 	0.0	0	126.321953299921	126.421955599915	0.10000229999423
138483	100	331	stimuli/plant/grass/plant_grass03.jpg            	1	5	1	plant_grass03.jpg    	plant    	6	grass     	17	grass03     	172	alive    	1	still	0	natural 	1	n	0	0        	 	0.0	0	126.47195799998	126.571949099889	0.0999910999089479
138633	100	332	stimuli/movNat/hotspring/mn_hotspring07.jpg      	1	5	1	mn_hotspring07.jpg   	movNat   	3	hotspring 	21	hotspring07 	216	not_alive	0	moves	1	natural 	1	n	0	0        	 	0.0	0	126.621961199911	126.721956199966	0.0999950000550598
138783	100	333	stimuli/plant/flower/plant_flower05.jpg          	1	5	1	plant_flower05.jpg   	plant    	6	flower    	16	flower05    	164	alive    	1	still	0	natural 	1	n	0	0        	 	0.0	0	126.771964400075	126.87197629991	0.100011899834499
138933	100	334	stimuli/animals2/pigeon/animal_pigeon04.jpg      	1	5	1	animal_pigeon04.jpg  	animals2 	1	pigeon    	28	pigeon04    	283	alive    	1	moves	1	natural 	1	n	0	0        	 	0.0	0	126.9219688999	127.021961400053	0.0999925001524389
139083	100	335	stimuli/animals2/bee/animal_bee08.jpg            	1	5	1	animal_bee08.jpg     	animals2 	1	bee       	0	bee08       	7	alive    	1	moves	1	natural 	1	n	0	0        	 	0.0	0	127.071973999962	127.171966699883	0.0999926999211311
139233	100	336	stimuli/nonmovNat/rock/nmn_rock06.jpg            	1	5	1	nmn_rock06.jpg       	nonmovNat	5	rock      	30	rock06      	305	not_alive	0	still	0	natural 	1	n	1	0        	 	0.0	0	127.221975099994	127.321988600073	0.100013500079513
139383	100	337	stimuli/movNat/waterfall/mn_waterfall06.jpg      	1	5	1	mn_waterfall06.jpg   	movNat   	3	waterfall 	37	waterfall06 	375	not_alive	0	moves	1	natural 	1	n	0	0        	 	0.0	0	127.371987399878	127.471972099971	0.0999847000930458
139533	100	338	stimuli/nonmovNat/shell/nmn_shell04.jpg          	1	5	1	nmn_shell04.jpg      	nonmovNat	5	shell     	32	shell04     	323	not_alive	0	still	0	natural 	1	n	0	1        	f	0.292117400094867	1	127.521984299878	127.621978200041	0.0999939001630992
139683	100	339	stimuli/plant/tree/plant_tree04.jpg              	1	5	1	plant_tree04.jpg     	plant    	6	tree      	35	tree04      	353	alive    	1	still	0	natural 	1	n	0	0        	 	0.0	0	127.671988399932	127.771999899996	0.100011500064284
139833	100	340	stimuli/animals2/pigeon/animal_pigeon09.jpg      	1	5	1	animal_pigeon09.jpg  	animals2 	1	pigeon    	28	pigeon09    	288	alive    	1	moves	1	natural 	1	n	0	0        	 	0.0	0	127.821993199876	127.9219841999	0.0999910000246018
139983	100	341	stimuli/plant2/lemontree/plant_lemontree09.jpg   	1	5	1	plant_lemontree09.jpg	plant2   	7	lemontree 	22	lemontree09 	228	alive    	1	still	0	natural 	1	n	0	0        	 	0.0	0	127.971993899904	128.07198820007	0.099994300166145
140133	100	342	stimuli/plant/vine/plant_vine05.jpg              	1	5	1	plant_vine05.jpg     	plant    	6	vine      	36	vine05      	364	alive    	1	still	0	natural 	1	n	0	0        	 	0.0	0	128.121996100061	128.22199069988	0.0999945998191834
140283	100	343	stimuli/animals/cat/animal_cat08.jpg             	1	5	1	animal_cat08.jpg     	animals  	0	cat       	6	cat08       	67	alive    	1	moves	1	natural 	1	n	1	0        	 	0.0	0	128.27200379991	128.37199559994	0.0999918000306934
140433	100	344	stimuli/nonmovArt/lock/nma_lock01.jpg            	1	5	1	nma_lock01.jpg       	nonmovArt	4	lock      	24	lock01      	240	not_alive	0	still	0	artefact	0	n	0	0        	 	0.0	0	128.42200520006	128.521999599878	0.0999943998176604
140583	100	345	stimuli/nonmovArt/mug/nma_mug05.jpg              	1	5	1	nma_mug05.jpg        	nonmovArt	4	mug       	26	mug05       	264	not_alive	0	still	0	artefact	0	n	0	1        	f	0.292154900031164	1	128.572011600016	128.672003299929	0.0999916999135166
140733	100	346	stimuli/animals/eagle/animal_eagle09.jpg         	1	5	1	animal_eagle09.jpg   	animals  	0	eagle     	13	eagle09     	138	alive    	1	moves	1	natural 	1	n	0	0        	 	0.0	0	128.722015900072	128.822006999981	0.0999910999089479
140883	100	347	stimuli/animals2/lemur/animal_lemur10.jpg        	1	5	1	animal_lemur10.jpg   	animals2 	1	lemur     	23	lemur10     	239	alive    	1	moves	1	natural 	1	n	0	0        	 	0.0	0	128.872017199872	128.972009700025	0.0999925001524389
141033	100	348	stimuli/nonmovArt/mug/nma_mug08.jpg              	1	5	1	nma_mug08.jpg        	nonmovArt	4	mug       	26	mug08       	267	not_alive	0	still	0	artefact	0	n	0	0        	 	0.0	0	129.022020899924	129.122012899956	0.0999920000322163
141183	100	349	stimuli/plant2/moss/plant_moss01.jpg             	1	5	1	plant_moss01.jpg     	plant2   	7	moss      	25	moss01      	250	alive    	1	still	0	natural 	1	n	0	0        	 	0.0	0	129.172024599975	129.272017099895	0.0999924999196082
141333	100	350	stimuli/nonmovArt/headphones/nma_headphones02.jpg	1	5	1	nma_headphones02.jpg 	nonmovArt	4	headphones	18	headphones02	181	not_alive	0	still	0	artefact	0	n	0	0        	 	0.0	0	129.322024900001	129.422037000069	0.100012100068852
141483	100	351	stimuli/plant/flower/plant_flower04.jpg          	1	5	1	plant_flower04.jpg   	plant    	6	flower    	16	flower04    	163	alive    	1	still	0	natural 	1	n	0	0        	 	0.0	0	129.472031299956	129.572024599882	0.0999932999256998
141633	100	352	stimuli/animals2/bee/animal_bee03.jpg            	1	5	1	animal_bee03.jpg     	animals2 	1	bee       	0	bee03       	2	alive    	1	moves	1	natural 	1	n	0	0        	 	0.0	0	129.622035299893	129.722028099932	0.0999928000383079
141783	100	353	stimuli/animals/dolphin/animal_dolphin03.jpg     	1	5	1	animal_dolphin03.jpg 	animals  	0	dolphin   	12	dolphin03   	122	alive    	1	moves	1	natural 	1	n	0	0        	 	0.0	0	129.772038300056	129.872032899875	0.0999945998191834
141933	100	354	stimuli/plant/cactus/plant_cactus01.jpg          	1	5	1	plant_cactus01.jpg   	plant    	6	cactus    	4	cactus01    	40	alive    	1	still	0	natural 	1	n	0	0        	 	0.0	0	129.922041799873	130.022034500027	0.0999927001539618
142083	100	355	stimuli/animals2/lemur/animal_lemur07.jpg        	1	5	1	animal_lemur07.jpg   	animals2 	1	lemur     	23	lemur07     	236	alive    	1	moves	1	natural 	1	n	0	0        	 	0.0	0	130.07204889995	130.172039200086	0.099990300135687
142233	100	356	stimuli/animals/horse/animal_horse07.jpg         	1	5	1	animal_horse07.jpg   	animals  	0	horse     	20	horse07     	206	alive    	1	moves	1	natural 	1	n	0	0        	 	0.0	0	130.222050399985	130.3220422999	0.0999918999150395
142383	100	357	stimuli/nonmovNat/crystal/nmn_crystal03.jpg      	1	5	1	nmn_crystal03.jpg    	nonmovNat	5	crystal   	10	crystal03   	102	not_alive	0	still	0	natural 	1	n	0	0        	 	0.0	0	130.372055599932	130.472046999959	0.0999914000276476
142533	100	358	stimuli/animals2/whale/animal_whale07.jpg        	1	5	1	animal_whale07.jpg   	animals2 	1	whale     	39	whale07     	396	alive    	1	moves	1	natural 	1	n	0	0        	 	0.0	0	130.522072100081	130.622048899997	0.099976799916476
142683	100	359	stimuli/movNat/fire/mn_fire09.jpg                	1	5	1	mn_fire09.jpg        	movNat   	3	fire      	15	fire09      	158	not_alive	0	moves	1	natural 	1	n	0	0        	 	0.0	0	130.672062200028	130.772054800065	0.099992600036785
142833	100	360	stimuli/plant2/palmtree/plant_palmtree06.jpg     	1	5	1	plant_palmtree06.jpg 	plant2   	7	palmtree  	27	palmtree06  	275	alive    	1	still	0	natural 	1	n	0	0        	 	0.0	0	130.822063100059	130.922057499876	0.0999943998176604
142983	100	361	stimuli/animals/horse/animal_horse02.jpg         	1	5	1	animal_horse02.jpg   	animals  	0	horse     	20	horse02     	201	alive    	1	moves	1	natural 	1	n	0	0        	 	0.0	0	130.972065899987	131.072061100043	0.0999952000565827
143133	100	362	stimuli/movArt/car/ma_car09.jpg                  	1	5	1	ma_car09.jpg         	movArt   	2	car       	5	car09       	58	not_alive	0	moves	1	artefact	0	n	0	0        	 	0.0	0	131.12207120005	131.22206459986	0.099993399810046
143283	100	363	stimuli/animals/dolphin/animal_dolphin04.jpg     	1	5	1	animal_dolphin04.jpg 	animals  	0	dolphin   	12	dolphin04   	123	alive    	1	moves	1	natural 	1	n	0	0        	 	0.0	0	131.272074099863	131.372070000041	0.0999959001783282
143433	100	364	stimuli/nonmovNat/rock/nmn_rock08.jpg            	1	5	1	nmn_rock08.jpg       	nonmovNat	5	rock      	30	rock08      	307	not_alive	0	still	0	natural 	1	n	0	0        	 	0.0	0	131.422077100025	131.52207330009	0.0999962000641972
143583	100	365	stimuli/movNat/river/mn_river03.jpg              	1	5	1	mn_river03.jpg       	movNat   	3	river     	29	river03     	292	not_alive	0	moves	1	natural 	1	n	0	0        	 	0.0	0	131.572081800085	131.672075399896	0.0999935998115689
143733	100	366	stimuli/movNat/waves/mn_waves07.jpg              	1	5	1	mn_waves07.jpg       	movNat   	3	waves     	38	waves07     	386	not_alive	0	moves	1	natural 	1	n	0	0        	 	0.0	0	131.72208420001	131.822080299957	0.0999960999470204
143883	100	367	stimuli/plant2/fern/plant_fern01.jpg             	1	5	1	plant_fern01.jpg     	plant2   	7	fern      	14	fern01      	140	alive    	1	still	0	natural 	1	n	0	0        	 	0.0	0	131.872107699979	131.972083000001	0.0999753000214696
144033	100	368	stimuli/nonmovArt/headphones/nma_headphones07.jpg	1	5	1	nma_headphones07.jpg 	nonmovArt	4	headphones	18	headphones07	186	not_alive	0	still	0	artefact	0	n	0	0        	 	0.0	0	132.022092900006	132.122088399949	0.0999954999424517
144183	100	369	stimuli/plant/cactus/plant_cactus02.jpg          	1	5	1	plant_cactus02.jpg   	plant    	6	cactus    	4	cactus02    	41	alive    	1	still	0	natural 	1	n	0	0        	 	0.0	0	132.172095400048	132.272091199877	0.0999957998283207
144333	100	370	stimuli/nonmovArt/mug/nma_mug06.jpg              	1	5	1	nma_mug06.jpg        	nonmovArt	4	mug       	26	mug06       	265	not_alive	0	still	0	artefact	0	n	0	0        	 	0.0	0	132.322099799989	132.42211439996	0.100014599971473
144483	100	371	stimuli/plant/tree/plant_tree07.jpg              	1	5	1	plant_tree07.jpg     	plant    	6	tree      	35	tree07      	356	alive    	1	still	0	natural 	1	n	0	0        	 	0.0	0	132.47210350004	132.572097599972	0.0999940999317914
144633	100	372	stimuli/nonmovNat/cliff/nmn_cliff07.jpg          	1	5	1	nmn_cliff07.jpg      	nonmovNat	5	cliff     	7	cliff07     	76	not_alive	0	still	0	natural 	1	n	0	0        	 	0.0	0	132.622124999994	132.722103199922	0.0999781999271363
144783	100	373	stimuli/plant/flower/plant_flower04.jpg          	1	5	1	plant_flower04.jpg   	plant    	6	flower    	16	flower04    	163	alive    	1	still	0	natural 	1	n	0	0        	 	0.0	0	132.772130100057	132.872105000075	0.0999749000184238
144933	100	374	stimuli/nonmovNat/sand/nmn_sand06.jpg            	1	5	1	nmn_sand06.jpg       	nonmovNat	5	sand      	31	sand06      	315	not_alive	0	still	0	natural 	1	n	0	0        	 	0.0	0	132.922117099864	133.022108299891	0.0999912000261247
145083	100	375	stimuli/plant2/palmtree/plant_palmtree06.jpg     	1	5	1	plant_palmtree06.jpg 	plant2   	7	palmtree  	27	palmtree06  	275	alive    	1	still	0	natural 	1	n	0	0        	 	0.0	0	133.072138299933	133.172113700071	0.0999754001386464
145233	100	376	stimuli/nonmovNat/shell/nmn_shell08.jpg          	1	5	1	nmn_shell08.jpg      	nonmovNat	5	shell     	32	shell08     	327	not_alive	0	still	0	natural 	1	n	0	0        	 	0.0	0	133.222134399926	133.322117300006	0.0999829000793397
145383	100	377	stimuli/movNat/waves/mn_waves02.jpg              	1	5	1	mn_waves02.jpg       	movNat   	3	waves     	38	waves02     	381	not_alive	0	moves	1	natural 	1	n	0	0        	 	0.0	0	133.3721278999	133.472121200059	0.0999933001585305
145533	100	378	stimuli/animals2/tiger/animal_tiger01.jpg        	1	5	1	animal_tiger01.jpg   	animals2 	1	tiger     	33	tiger01     	330	alive    	1	moves	1	natural 	1	n	0	0        	 	0.0	0	133.52213050006	133.622129200026	0.0999986999668181
145683	100	379	stimuli/animals/eagle/animal_eagle04.jpg         	1	5	1	animal_eagle04.jpg   	animals  	0	eagle     	13	eagle04     	133	alive    	1	moves	1	natural 	1	n	0	0        	 	0.0	0	133.672133799875	133.77212739992	0.0999936000443995
145833	100	380	stimuli/movArt/helicopter/ma_helicopter05.jpg    	1	5	1	ma_helicopter05.jpg  	movArt   	2	helicopter	19	helicopter05	194	not_alive	0	moves	1	artefact	0	n	0	0        	 	0.0	0	133.822145499987	133.92212969996	0.0999841999728233
145983	100	381	stimuli/plant/vine/plant_vine04.jpg              	1	5	1	plant_vine04.jpg     	plant    	6	vine      	36	vine04      	363	alive    	1	still	0	natural 	1	n	1	0        	 	0.0	0	133.972141899867	134.072153799934	0.100011900067329
146133	100	382	stimuli/movNat/waves/mn_waves04.jpg              	1	5	1	mn_waves04.jpg       	movNat   	3	waves     	38	waves04     	383	not_alive	0	moves	1	natural 	1	n	0	0        	 	0.0	0	134.122146199923	134.222138999961	0.0999928000383079
146283	100	383	stimuli/plant2/moss/plant_moss09.jpg             	1	5	1	plant_moss09.jpg     	plant2   	7	moss      	25	moss09      	258	alive    	1	still	0	natural 	1	n	0	1        	f	0.30716950003989	1	134.272148000076	134.372142199893	0.0999941998161376
146433	100	384	stimuli/nonmovNat/crystal/nmn_crystal04.jpg      	1	5	1	nmn_crystal04.jpg    	nonmovNat	5	crystal   	10	crystal04   	103	not_alive	0	still	0	natural 	1	n	0	0        	 	0.0	0	134.422151899897	134.522177899955	0.100026000058278
146583	100	385	stimuli/plant/grass/plant_grass01.jpg            	1	5	1	plant_grass01.jpg    	plant    	6	grass     	17	grass01     	170	alive    	1	still	0	natural 	1	n	0	0        	 	0.0	0	134.572178799892	134.672171399929	0.099992600036785
146733	100	386	stimuli/nonmovArt/headphones/nma_headphones10.jpg	1	5	1	nma_headphones10.jpg 	nonmovArt	4	headphones	18	headphones10	189	not_alive	0	still	0	artefact	0	n	1	0        	 	0.0	0	134.722195500042	134.822176999878	0.0999814998358488
146883	100	387	stimuli/plant/cactus/plant_cactus07.jpg          	1	5	1	plant_cactus07.jpg   	plant    	6	cactus    	4	cactus07    	46	alive    	1	still	0	natural 	1	n	0	0        	 	0.0	0	134.872187000001	134.972177499905	0.0999904999043792
147033	100	388	stimuli/movNat/fire/mn_fire04.jpg                	1	5	1	mn_fire04.jpg        	movNat   	3	fire      	15	fire04      	153	not_alive	0	moves	1	natural 	1	n	0	1        	f	0.391995499841869	1	135.022187900031	135.122174199903	0.0999862998723984
147183	100	389	stimuli/plant/vine/plant_vine02.jpg              	1	5	1	plant_vine02.jpg     	plant    	6	vine      	36	vine02      	361	alive    	1	still	0	natural 	1	n	0	0        	 	0.0	0	135.172196999891	135.272192799952	0.0999958000611514
147333	100	390	stimuli/animals2/tiger/animal_tiger10.jpg        	1	5	1	animal_tiger10.jpg   	animals2 	1	tiger     	33	tiger10     	339	alive    	1	moves	1	natural 	1	n	0	0        	 	0.0	0	135.322187199956	135.422195899999	0.100008700042963
147483	100	391	stimuli/movArt/train/ma_train06.jpg              	1	5	1	ma_train06.jpg       	movArt   	2	train     	34	train06     	345	not_alive	0	moves	1	artefact	0	n	0	0        	 	0.0	0	135.472188899992	135.572201299947	0.100012399954721
147633	100	392	stimuli/animals/horse/animal_horse09.jpg         	1	5	1	animal_horse09.jpg   	animals  	0	horse     	20	horse09     	208	alive    	1	moves	1	natural 	1	n	0	0        	 	0.0	0	135.622184499865	135.72220259998	0.100018100114539
147783	100	393	stimuli/plant/tree/plant_tree01.jpg              	1	5	1	plant_tree01.jpg     	plant    	6	tree      	35	tree01      	350	alive    	1	still	0	natural 	1	n	0	0        	 	0.0	0	135.772206800058	135.872208399931	0.100001599872485
147933	100	394	stimuli/animals/eagle/animal_eagle09.jpg         	1	5	1	animal_eagle09.jpg   	animals  	0	eagle     	13	eagle09     	138	alive    	1	moves	1	natural 	1	n	0	0        	 	0.0	0	135.922215699917	136.022193799959	0.0999781000427902
148083	100	395	stimuli/nonmovArt/lock/nma_lock03.jpg            	1	5	1	nma_lock03.jpg       	nonmovArt	4	lock      	24	lock03      	242	not_alive	0	still	0	artefact	0	n	0	0        	 	0.0	0	136.072203699965	136.172212499892	0.100008799927309
148233	100	396	stimuli/animals2/whale/animal_whale03.jpg        	1	5	1	animal_whale03.jpg   	animals2 	1	whale     	39	whale03     	392	alive    	1	moves	1	natural 	1	n	0	0        	 	0.0	0	136.22222919995	136.322206899989	0.0999777000397444
148383	100	397	stimuli/nonmovArt/bench/nma_bench06.jpg          	1	5	1	nma_bench06.jpg      	nonmovArt	4	bench     	1	bench06     	15	not_alive	0	still	0	artefact	0	n	0	0        	 	0.0	0	136.372225299943	136.472208000021	0.0999827000778168
148533	100	398	stimuli/plant/cactus/plant_cactus06.jpg          	1	5	1	plant_cactus06.jpg   	plant    	6	cactus    	4	cactus06    	45	alive    	1	still	0	natural 	1	n	0	0        	 	0.0	0	136.522229599999	136.622207900044	0.0999783000443131
148683	100	399	stimuli/movArt/boat/ma_boat02.jpg                	1	5	1	ma_boat02.jpg        	movArt   	2	boat      	2	boat02      	21	not_alive	0	moves	1	artefact	0	n	0	0        	 	0.0	0	136.672233399935	136.772211199859	0.0999777999240905
152400	100	400	stimuli/nonmovArt/lock/nma_lock08.jpg            	1	6	1	nma_lock08.jpg       	nonmovArt	4	lock      	24	lock08      	247	not_alive	0	still	0	artefact	0	n	0	0        	 	0.0	0	140.388976099901	140.488967600046	0.0999915001448244
152550	100	401	stimuli/plant2/moss/plant_moss07.jpg             	1	6	1	plant_moss07.jpg     	plant2   	7	moss      	25	moss07      	256	alive    	1	still	0	natural 	1	n	0	0        	 	0.0	0	140.538973599905	140.638968799962	0.0999952000565827
152700	100	402	stimuli/nonmovNat/rock/nmn_rock01.jpg            	1	6	1	nmn_rock01.jpg       	nonmovNat	5	rock      	30	rock01      	300	not_alive	0	still	0	natural 	1	n	0	0        	 	0.0	0	140.688978600083	140.788971799891	0.0999931998085231
152850	100	403	stimuli/plant2/clover/plant_clover08.jpg         	1	6	1	plant_clover08.jpg   	plant2   	7	clover    	9	clover08    	97	alive    	1	still	0	natural 	1	n	0	0        	 	0.0	0	140.838981099892	140.938978000078	0.0999969001859426
153000	100	404	stimuli/animals2/bee/animal_bee08.jpg            	1	6	1	animal_bee08.jpg     	animals2 	1	bee       	0	bee08       	7	alive    	1	moves	1	natural 	1	n	0	0        	 	0.0	0	140.988987199962	141.088981400011	0.0999942000489682
153150	100	405	stimuli/animals2/bee/animal_bee01.jpg            	1	6	1	animal_bee01.jpg     	animals2 	1	bee       	0	bee01       	0	alive    	1	moves	1	natural 	1	n	0	0        	 	0.0	0	141.138991300017	141.23900400009	0.100012700073421
153300	100	406	stimuli/movArt/car/ma_car07.jpg                  	1	6	1	ma_car07.jpg         	movArt   	2	car       	5	car07       	56	not_alive	0	moves	1	artefact	0	n	0	0        	 	0.0	0	141.288992800051	141.389007299906	0.100014499854296
153450	100	407	stimuli/nonmovNat/crystal/nmn_crystal10.jpg      	1	6	1	nmn_crystal10.jpg    	nonmovNat	5	crystal   	10	crystal10   	109	not_alive	0	still	0	natural 	1	n	0	0        	 	0.0	0	141.438996199984	141.538989000022	0.0999928000383079
153600	100	408	stimuli/movNat/river/mn_river10.jpg              	1	6	1	mn_river10.jpg       	movNat   	3	river     	29	river10     	299	not_alive	0	moves	1	natural 	1	n	0	0        	 	0.0	0	141.588999900036	141.688993100077	0.0999932000413537
153750	100	409	stimuli/animals/cat/animal_cat03.jpg             	1	6	1	animal_cat03.jpg     	animals  	0	cat       	6	cat03       	62	alive    	1	moves	1	natural 	1	n	0	0        	 	0.0	0	141.739015700063	141.838998100022	0.0999823999591172
153900	100	410	stimuli/plant/vine/plant_vine01.jpg              	1	6	1	plant_vine01.jpg     	plant    	6	vine      	36	vine01      	360	alive    	1	still	0	natural 	1	n	0	0        	 	0.0	0	141.889005899895	141.98900089995	0.0999950000550598
154050	100	411	stimuli/movNat/fire/mn_fire02.jpg                	1	6	1	mn_fire02.jpg        	movNat   	3	fire      	15	fire02      	151	not_alive	0	moves	1	natural 	1	n	0	0        	 	0.0	0	142.039010900073	142.139013800072	0.100002899998799
154200	100	412	stimuli/animals2/lemur/animal_lemur07.jpg        	1	6	1	animal_lemur07.jpg   	animals2 	1	lemur     	23	lemur07     	236	alive    	1	moves	1	natural 	1	n	1	0        	 	0.0	0	142.189016100019	142.289020200027	0.100004100007936
