onset	duration	eventnumber	stimulus_file	blockno	trialno	is_faststream	stim	stim_category	category_number	exemplar	exemplar_number	image_name	image_number	aliveness	aliveness_bin	movement	movement_bin	naturalness	naturalness_bin	response_hand_alive	istarget	response	keypressed	rt	correct	time_stimon	time_stimoff	stimdur
105787	100	0	stimuli/animals2/lemur/animal_lemur03.jpg        	1	1	1	animal_lemur03.jpg   	animals2 	1	lemur     	23	lemur03     	232	alive    	1	moves	1	natural 	1	n	0	0        	 	0.0	0	98.0162064000033	98.1161848999909	0.0999784999876283
105937	100	1	stimuli/movArt/train/ma_train05.jpg              	1	1	1	ma_train05.jpg       	movArt   	2	train     	34	train05     	344	not_alive	0	moves	1	artefact	0	n	0	0        	 	0.0	0	98.1662038000068	98.2661920000101	0.0999882000032812
106087	100	2	stimuli/plant2/moss/plant_moss04.jpg             	1	1	1	plant_moss04.jpg     	plant2   	7	moss      	25	moss04      	253	alive    	1	still	0	natural 	1	n	0	0        	 	0.0	0	98.3161994999973	98.4161914000288	0.0999919000314549
106237	100	3	stimuli/animals2/pigeon/animal_pigeon06.jpg      	1	1	1	animal_pigeon06.jpg  	animals2 	1	pigeon    	28	pigeon06    	285	alive    	1	moves	1	natural 	1	n	0	0        	 	0.0	0	98.4662063000142	98.5661967000342	0.0999904000200331
106387	100	4	stimuli/plant/grass/plant_grass09.jpg            	1	1	1	plant_grass09.jpg    	plant    	6	grass     	17	grass09     	178	alive    	1	still	0	natural 	1	n	0	0        	 	0.0	0	98.6162091000005	98.7161993000191	0.0999902000185102
106537	100	5	stimuli/movNat/river/mn_river05.jpg              	1	1	1	mn_river05.jpg       	movNat   	3	river     	29	river05     	294	not_alive	0	moves	1	natural 	1	n	0	0        	 	0.0	0	98.7662121999892	98.8662077999906	0.0999956000014208
106687	100	6	stimuli/nonmovNat/shell/nmn_shell02.jpg          	1	1	1	nmn_shell02.jpg      	nonmovNat	5	shell     	32	shell02     	321	not_alive	0	still	0	natural 	1	n	0	0        	 	0.0	0	98.9162162999855	99.0162081000162	0.0999918000306934
106837	100	7	stimuli/plant2/fern/plant_fern09.jpg             	1	1	1	plant_fern09.jpg     	plant2   	7	fern      	14	fern09      	148	alive    	1	still	0	natural 	1	n	0	0        	 	0.0	0	99.0665192999877	99.1662250999943	0.0997058000066318
106987	100	8	stimuli/animals2/bee/animal_bee05.jpg            	1	1	1	animal_bee05.jpg     	animals2 	1	bee       	0	bee05       	4	alive    	1	moves	1	natural 	1	n	0	0        	 	0.0	0	99.2162247000379	99.3162308000028	0.100006099964958
107137	100	9	stimuli/animals/dolphin/animal_dolphin05.jpg     	1	1	1	animal_dolphin05.jpg 	animals  	0	dolphin   	12	dolphin05   	124	alive    	1	moves	1	natural 	1	n	0	0        	 	0.0	0	99.3662279000273	99.4662224000204	0.0999944999930449
107287	100	10	stimuli/nonmovNat/sand/nmn_sand10.jpg            	1	1	1	nmn_sand10.jpg       	nonmovNat	5	sand      	31	sand10      	319	not_alive	0	still	0	natural 	1	n	0	0        	 	0.0	0	99.5162339999806	99.6162248000037	0.0999908000230789
107437	100	11	stimuli/animals2/whale/animal_whale07.jpg        	1	1	1	animal_whale07.jpg   	animals2 	1	whale     	39	whale07     	396	alive    	1	moves	1	natural 	1	n	0	0        	 	0.0	0	99.6662539999815	99.7662280999939	0.0999741000123322
107587	100	12	stimuli/animals2/whale/animal_whale02.jpg        	1	1	1	animal_whale02.jpg   	animals2 	1	whale     	39	whale02     	391	alive    	1	moves	1	natural 	1	n	0	0        	 	0.0	0	99.8162387000048	99.9162329999963	0.099994299991522
107737	100	13	stimuli/animals2/bee/animal_bee05.jpg            	1	1	1	animal_bee05.jpg     	animals2 	1	bee       	0	bee05       	4	alive    	1	moves	1	natural 	1	n	0	0        	 	0.0	0	99.9662453000201	100.066239100008	0.0999937999877147
107887	100	14	stimuli/animals/eagle/animal_eagle01.jpg         	1	1	1	animal_eagle01.jpg   	animals  	0	eagle     	13	eagle01     	130	alive    	1	moves	1	natural 	1	n	0	0        	 	0.0	0	100.116247400001	100.216240199981	0.0999927999801002
108037	100	15	stimuli/plant2/fern/plant_fern01.jpg             	1	1	1	plant_fern01.jpg     	plant2   	7	fern      	14	fern01      	140	alive    	1	still	0	natural 	1	n	0	0        	 	0.0	0	100.266253900016	100.36624350003	0.0999896000139415
108187	100	16	stimuli/movArt/bus/ma_bus03.jpg                  	1	1	1	ma_bus03.jpg         	movArt   	2	bus       	3	bus03       	32	not_alive	0	moves	1	artefact	0	n	0	0        	 	0.0	0	100.41625770001	100.516250099987	0.0999923999770544
108337	100	17	stimuli/movNat/waterfall/mn_waterfall06.jpg      	1	1	1	mn_waterfall06.jpg   	movNat   	3	waterfall 	37	waterfall06 	375	not_alive	0	moves	1	natural 	1	n	0	0        	 	0.0	0	100.566257600032	100.666254099982	0.0999964999500662
108487	100	18	stimuli/movNat/fire/mn_fire03.jpg                	1	1	1	mn_fire03.jpg        	movNat   	3	fire      	15	fire03      	152	not_alive	0	moves	1	natural 	1	n	0	0        	 	0.0	0	100.716263499984	100.81625470001	0.0999912000261247
108637	100	19	stimuli/animals2/whale/animal_whale07.jpg        	1	1	1	animal_whale07.jpg   	animals2 	1	whale     	39	whale07     	396	alive    	1	moves	1	natural 	1	n	0	0        	 	0.0	0	100.866290899983	100.966257699998	0.0999668000149541
108787	100	20	stimuli/animals2/lemur/animal_lemur01.jpg        	1	1	1	animal_lemur01.jpg   	animals2 	1	lemur     	23	lemur01     	230	alive    	1	moves	1	natural 	1	n	0	0        	 	0.0	0	101.016282500001	101.116268199985	0.099985699984245
108937	100	21	stimuli/movArt/bus/ma_bus08.jpg                  	1	1	1	ma_bus08.jpg         	movArt   	2	bus       	3	bus08       	37	not_alive	0	moves	1	artefact	0	n	0	0        	 	0.0	0	101.166275400028	101.26626970002	0.099994299991522
109087	100	22	stimuli/plant/tree/plant_tree07.jpg              	1	1	1	plant_tree07.jpg     	plant    	6	tree      	35	tree07      	356	alive    	1	still	0	natural 	1	n	1	0        	 	0.0	0	101.316311300034	101.416279099998	0.0999677999643609
109237	100	23	stimuli/movArt/helicopter/ma_helicopter06.jpg    	1	1	1	ma_helicopter06.jpg  	movArt   	2	helicopter	19	helicopter06	195	not_alive	0	moves	1	artefact	0	n	0	0        	 	0.0	0	101.466290000011	101.566271900025	0.0999819000135176
109387	100	24	stimuli/plant/flower/plant_flower03.jpg          	1	1	1	plant_flower03.jpg   	plant    	6	flower    	16	flower03    	162	alive    	1	still	0	natural 	1	n	1	0        	 	0.0	0	101.616282999981	101.716275400016	0.0999924000352621
109537	100	25	stimuli/movArt/bus/ma_bus05.jpg                  	1	1	1	ma_bus05.jpg         	movArt   	2	bus       	3	bus05       	34	not_alive	0	moves	1	artefact	0	n	0	1        	f	0.142217100015841	1	101.766295599984	101.866292799998	0.099997200013604
109687	100	26	stimuli/plant/cactus/plant_cactus02.jpg          	1	1	1	plant_cactus02.jpg   	plant    	6	cactus    	4	cactus02    	41	alive    	1	still	0	natural 	1	n	0	0        	 	0.0	0	101.916311100009	102.016324700031	0.100013600022066
109837	100	27	stimuli/nonmovArt/bench/nma_bench10.jpg          	1	1	1	nma_bench10.jpg      	nonmovArt	4	bench     	1	bench10     	19	not_alive	0	still	0	artefact	0	n	0	0        	 	0.0	0	102.066319500038	102.166299400036	0.0999798999982886
109987	100	28	stimuli/nonmovNat/cliff/nmn_cliff05.jpg          	1	1	1	nmn_cliff05.jpg      	nonmovNat	5	cliff     	7	cliff05     	74	not_alive	0	still	0	natural 	1	n	0	0        	 	0.0	0	102.21631019999	102.316301500017	0.0999913000268862
110137	100	29	stimuli/nonmovNat/shell/nmn_shell10.jpg          	1	1	1	nmn_shell10.jpg      	nonmovNat	5	shell     	32	shell10     	329	not_alive	0	still	0	natural 	1	n	0	0        	 	0.0	0	102.366312600032	102.466306600021	0.0999939999892376
110287	100	30	stimuli/nonmovNat/rock/nmn_rock05.jpg            	1	1	1	nmn_rock05.jpg       	nonmovNat	5	rock      	30	rock05      	304	not_alive	0	still	0	natural 	1	n	0	0        	 	0.0	0	102.516321000003	102.616329399985	0.100008399982471
110437	100	31	stimuli/nonmovNat/cliff/nmn_cliff09.jpg          	1	1	1	nmn_cliff09.jpg      	nonmovNat	5	cliff     	7	cliff09     	78	not_alive	0	still	0	natural 	1	n	0	0        	 	0.0	0	102.666329900036	102.766327899997	0.099997999961488
110587	100	32	stimuli/movArt/car/ma_car08.jpg                  	1	1	1	ma_car08.jpg         	movArt   	2	car       	5	car08       	57	not_alive	0	moves	1	artefact	0	n	0	0        	 	0.0	0	102.816324300016	102.916316399991	0.0999920999747701
110737	100	33	stimuli/nonmovArt/mug/nma_mug09.jpg              	1	1	1	nma_mug09.jpg        	nonmovArt	4	mug       	26	mug09       	268	not_alive	0	still	0	artefact	0	n	0	0        	 	0.0	0	102.966331100033	103.066323200008	0.0999920999747701
110887	100	34	stimuli/plant2/clover/plant_clover10.jpg         	1	1	1	plant_clover10.jpg   	plant2   	7	clover    	9	clover10    	99	alive    	1	still	0	natural 	1	n	0	0        	 	0.0	0	103.116344299982	103.216333599994	0.0999893000116572
111037	100	35	stimuli/nonmovArt/clothespeg/nma_clothespeg04.jpg	1	1	1	nma_clothespeg04.jpg 	nonmovArt	4	clothespeg	8	clothespeg04	83	not_alive	0	still	0	artefact	0	n	0	0        	 	0.0	0	103.266340200033	103.366330399993	0.0999901999603026
111187	100	36	stimuli/animals2/pigeon/animal_pigeon09.jpg      	1	1	1	animal_pigeon09.jpg  	animals2 	1	pigeon    	28	pigeon09    	288	alive    	1	moves	1	natural 	1	n	0	0        	 	0.0	0	103.416342300014	103.516347300028	0.100005000014789
111337	100	37	stimuli/movNat/river/mn_river02.jpg              	1	1	1	mn_river02.jpg       	movNat   	3	river     	29	river02     	291	not_alive	0	moves	1	natural 	1	n	0	0        	 	0.0	0	103.566344399995	103.666349200008	0.100004800013267
111487	100	38	stimuli/movNat/waves/mn_waves07.jpg              	1	1	1	mn_waves07.jpg       	movNat   	3	waves     	38	waves07     	386	not_alive	0	moves	1	natural 	1	n	0	0        	 	0.0	0	103.716362899984	103.816343399987	0.0999805000028573
111637	100	39	stimuli/plant2/fern/plant_fern07.jpg             	1	1	1	plant_fern07.jpg     	plant2   	7	fern      	14	fern07      	146	alive    	1	still	0	natural 	1	n	0	0        	 	0.0	0	103.866382999986	103.966360200022	0.0999772000359371
111787	100	40	stimuli/plant/cactus/plant_cactus03.jpg          	1	1	1	plant_cactus03.jpg   	plant    	6	cactus    	4	cactus03    	42	alive    	1	still	0	natural 	1	n	0	0        	 	0.0	0	104.016356000036	104.116356400016	0.100000399979763
111937	100	41	stimuli/nonmovArt/headphones/nma_headphones05.jpg	1	1	1	nma_headphones05.jpg 	nonmovArt	4	headphones	18	headphones05	184	not_alive	0	still	0	artefact	0	n	0	0        	 	0.0	0	104.16635980003	104.266354800027	0.0999949999968521
112087	100	42	stimuli/plant/vine/plant_vine01.jpg              	1	1	1	plant_vine01.jpg     	plant    	6	vine      	36	vine01      	360	alive    	1	still	0	natural 	1	n	0	0        	 	0.0	0	104.316365100036	104.4163482	0.0999830999644473
112237	100	43	stimuli/plant2/lemontree/plant_lemontree02.jpg   	1	1	1	plant_lemontree02.jpg	plant2   	7	lemontree 	22	lemontree02 	221	alive    	1	still	0	natural 	1	n	0	0        	 	0.0	0	104.466377400036	104.566360900004	0.0999834999674931
112387	100	44	stimuli/animals2/pigeon/animal_pigeon08.jpg      	1	1	1	animal_pigeon08.jpg  	animals2 	1	pigeon    	28	pigeon08    	287	alive    	1	moves	1	natural 	1	n	0	0        	 	0.0	0	104.616389700037	104.716363499989	0.0999737999518402
112537	100	45	stimuli/nonmovArt/lock/nma_lock01.jpg            	1	1	1	nma_lock01.jpg       	nonmovArt	4	lock      	24	lock01      	240	not_alive	0	still	0	artefact	0	n	0	0        	 	0.0	0	104.766376300016	104.866374000034	0.0999977000174113
112687	100	46	stimuli/movNat/fire/mn_fire08.jpg                	1	1	1	mn_fire08.jpg        	movNat   	3	fire      	15	fire08      	157	not_alive	0	moves	1	natural 	1	n	0	0        	 	0.0	0	104.9163787	105.016373799997	0.0999950999976136
112837	100	47	stimuli/animals2/lemur/animal_lemur09.jpg        	1	1	1	animal_lemur09.jpg   	animals2 	1	lemur     	23	lemur09     	238	alive    	1	moves	1	natural 	1	n	0	0        	 	0.0	0	105.066385400016	105.166375100031	0.099989700014703
112987	100	48	stimuli/animals/horse/animal_horse04.jpg         	1	1	1	animal_horse04.jpg   	animals  	0	horse     	20	horse04     	203	alive    	1	moves	1	natural 	1	n	0	0        	 	0.0	0	105.216401499987	105.316390399996	0.0999889000086114
113137	100	49	stimuli/nonmovArt/clothespeg/nma_clothespeg02.jpg	1	1	1	nma_clothespeg02.jpg 	nonmovArt	4	clothespeg	8	clothespeg02	81	not_alive	0	still	0	artefact	0	n	0	0        	 	0.0	0	105.366403300024	105.466390700021	0.0999873999971896
113287	100	50	stimuli/movNat/waterfall/mn_waterfall09.jpg      	1	1	1	mn_waterfall09.jpg   	movNat   	3	waterfall 	37	waterfall09 	378	not_alive	0	moves	1	natural 	1	n	0	0        	 	0.0	0	105.516407500021	105.616389500035	0.099982000014279
113437	100	51	stimuli/movNat/river/mn_river05.jpg              	1	1	1	mn_river05.jpg       	movNat   	3	river     	29	river05     	294	not_alive	0	moves	1	natural 	1	n	0	0        	 	0.0	0	105.666403400013	105.766394200036	0.0999908000230789
113587	100	52	stimuli/animals2/tiger/animal_tiger01.jpg        	1	1	1	animal_tiger01.jpg   	animals2 	1	tiger     	33	tiger01     	330	alive    	1	moves	1	natural 	1	n	0	0        	 	0.0	0	105.816412699991	105.916394100001	0.0999814000097103
113737	100	53	stimuli/nonmovNat/crystal/nmn_crystal09.jpg      	1	1	1	nmn_crystal09.jpg    	nonmovNat	5	crystal   	10	crystal09   	108	not_alive	0	still	0	natural 	1	n	0	0        	 	0.0	0	105.966404600011	106.066398099996	0.0999934999854304
113887	100	54	stimuli/movNat/waves/mn_waves09.jpg              	1	1	1	mn_waves09.jpg       	movNat   	3	waves     	38	waves09     	388	not_alive	0	moves	1	natural 	1	n	0	0        	 	0.0	0	106.116417400015	106.216398700024	0.0999813000089489
114037	100	55	stimuli/nonmovArt/bench/nma_bench02.jpg          	1	1	1	nma_bench02.jpg      	nonmovArt	4	bench     	1	bench02     	11	not_alive	0	still	0	artefact	0	n	0	0        	 	0.0	0	106.266412099998	106.366399499995	0.0999873999971896
114187	100	56	stimuli/plant2/palmtree/plant_palmtree08.jpg     	1	1	1	plant_palmtree08.jpg 	plant2   	7	palmtree  	27	palmtree08  	277	alive    	1	still	0	natural 	1	n	0	0        	 	0.0	0	106.416415999993	106.516405300004	0.0999893000116572
114337	100	57	stimuli/plant2/clover/plant_clover07.jpg         	1	1	1	plant_clover07.jpg   	plant2   	7	clover    	9	clover07    	96	alive    	1	still	0	natural 	1	n	0	0        	 	0.0	0	106.566411999986	106.666408799996	0.0999968000105582
114487	100	58	stimuli/nonmovArt/headphones/nma_headphones01.jpg	1	1	1	nma_headphones01.jpg 	nonmovArt	4	headphones	18	headphones01	180	not_alive	0	still	0	artefact	0	n	0	0        	 	0.0	0	106.716437300027	106.816410700034	0.0999734000070021
114637	100	59	stimuli/animals2/tiger/animal_tiger03.jpg        	1	1	1	animal_tiger03.jpg   	animals2 	1	tiger     	33	tiger03     	332	alive    	1	moves	1	natural 	1	n	1	0        	 	0.0	0	106.866422199993	106.966413600021	0.0999914000276476
114787	100	60	stimuli/nonmovArt/headphones/nma_headphones10.jpg	1	1	1	nma_headphones10.jpg 	nonmovArt	4	headphones	18	headphones10	189	not_alive	0	still	0	artefact	0	n	0	0        	 	0.0	0	107.016426099988	107.116417900019	0.0999918000306934
114937	100	61	stimuli/plant/grass/plant_grass05.jpg            	1	1	1	plant_grass05.jpg    	plant    	6	grass     	17	grass05     	174	alive    	1	still	0	natural 	1	n	0	1        	f	0.306083400035277	1	107.166429300036	107.266425599984	0.0999962999485433
115087	100	62	stimuli/movArt/boat/ma_boat09.jpg                	1	1	1	ma_boat09.jpg        	movArt   	2	boat      	2	boat09      	28	not_alive	0	moves	1	artefact	0	n	0	0        	 	0.0	0	107.316437900008	107.416426300013	0.0999884000048041
115237	100	63	stimuli/movNat/waves/mn_waves02.jpg              	1	1	1	mn_waves02.jpg       	movNat   	3	waves     	38	waves02     	381	not_alive	0	moves	1	natural 	1	n	0	0        	 	0.0	0	107.466439799988	107.566469700017	0.100029900029767
115387	100	64	stimuli/movNat/fire/mn_fire10.jpg                	1	1	1	mn_fire10.jpg        	movNat   	3	fire      	15	fire10      	159	not_alive	0	moves	1	natural 	1	n	0	0        	 	0.0	0	107.616440600017	107.716431799985	0.099991199967917
115537	100	65	stimuli/plant2/moss/plant_moss04.jpg             	1	1	1	plant_moss04.jpg     	plant2   	7	moss      	25	moss04      	253	alive    	1	still	0	natural 	1	n	0	0        	 	0.0	0	107.766443500004	107.866439600009	0.0999961000052281
115687	100	66	stimuli/animals/cat/animal_cat03.jpg             	1	1	1	animal_cat03.jpg     	animals  	0	cat       	6	cat03       	62	alive    	1	moves	1	natural 	1	n	0	0        	 	0.0	0	107.916470800003	108.016442399996	0.099971599993296
115837	100	67	stimuli/movArt/boat/ma_boat09.jpg                	1	1	1	ma_boat09.jpg        	movArt   	2	boat      	2	boat09      	28	not_alive	0	moves	1	artefact	0	n	0	0        	 	0.0	0	108.066454200016	108.166461699991	0.100007499975618
115987	100	68	stimuli/movNat/waterfall/mn_waterfall04.jpg      	1	1	1	mn_waterfall04.jpg   	movNat   	3	waterfall 	37	waterfall04 	373	not_alive	0	moves	1	natural 	1	n	0	0        	 	0.0	0	108.216456900002	108.316482499999	0.100025599997025
116137	100	69	stimuli/plant2/lemontree/plant_lemontree10.jpg   	1	1	1	plant_lemontree10.jpg	plant2   	7	lemontree 	22	lemontree10 	229	alive    	1	still	0	natural 	1	n	0	0        	 	0.0	0	108.366459799989	108.466455699992	0.0999959000037052
116287	100	70	stimuli/animals/dolphin/animal_dolphin07.jpg     	1	1	1	animal_dolphin07.jpg 	animals  	0	dolphin   	12	dolphin07   	126	alive    	1	moves	1	natural 	1	n	0	0        	 	0.0	0	108.516474900011	108.61647529999	0.100000399979763
116437	100	71	stimuli/nonmovNat/crystal/nmn_crystal05.jpg      	1	1	1	nmn_crystal05.jpg    	nonmovNat	5	crystal   	10	crystal05   	104	not_alive	0	still	0	natural 	1	n	0	0        	 	0.0	0	108.666471400007	108.766463100037	0.099991700029932
116587	100	72	stimuli/animals/cat/animal_cat03.jpg             	1	1	1	animal_cat03.jpg     	animals  	0	cat       	6	cat03       	62	alive    	1	moves	1	natural 	1	n	0	0        	 	0.0	0	108.816472799983	108.916486400005	0.100013600022066
116737	100	73	stimuli/animals2/bee/animal_bee08.jpg            	1	1	1	animal_bee08.jpg     	animals2 	1	bee       	0	bee08       	7	alive    	1	moves	1	natural 	1	n	0	0        	 	0.0	0	108.96647460002	109.066508400021	0.100033800001256
116887	100	74	stimuli/nonmovArt/bench/nma_bench02.jpg          	1	1	1	nma_bench02.jpg      	nonmovArt	4	bench     	1	bench02     	11	not_alive	0	still	0	artefact	0	n	0	0        	 	0.0	0	109.116480400029	109.216486299993	0.100005899963435
117037	100	75	stimuli/movArt/helicopter/ma_helicopter10.jpg    	1	1	1	ma_helicopter10.jpg  	movArt   	2	helicopter	19	helicopter10	199	not_alive	0	moves	1	artefact	0	n	0	0        	 	0.0	0	109.266488299996	109.366477000003	0.0999887000070885
117187	100	76	stimuli/movNat/hotspring/mn_hotspring05.jpg      	1	1	1	mn_hotspring05.jpg   	movNat   	3	hotspring 	21	hotspring05 	214	not_alive	0	moves	1	natural 	1	n	0	0        	 	0.0	0	109.416515999998	109.516484500025	0.0999685000278987
117337	100	77	stimuli/movArt/boat/ma_boat02.jpg                	1	1	1	ma_boat02.jpg        	movArt   	2	boat      	2	boat02      	21	not_alive	0	moves	1	artefact	0	n	0	0        	 	0.0	0	109.56649290002	109.666491599986	0.0999986999668181
117487	100	78	stimuli/plant2/lemontree/plant_lemontree03.jpg   	1	1	1	plant_lemontree03.jpg	plant2   	7	lemontree 	22	lemontree03 	222	alive    	1	still	0	natural 	1	n	0	0        	 	0.0	0	109.716495900007	109.816488599987	0.0999926999793388
117637	100	79	stimuli/movArt/car/ma_car03.jpg                  	1	1	1	ma_car03.jpg         	movArt   	2	car       	5	car03       	52	not_alive	0	moves	1	artefact	0	n	0	0        	 	0.0	0	109.866503300029	109.966493099986	0.0999897999572568
123120	100	80	stimuli/plant2/palmtree/plant_palmtree03.jpg     	1	2	1	plant_palmtree03.jpg 	plant2   	7	palmtree  	27	palmtree03  	272	alive    	1	still	0	natural 	1	n	0	0        	 	0.0	0	115.34999040002	115.449982899998	0.0999924999778159
123270	100	81	stimuli/plant2/moss/plant_moss04.jpg             	1	2	1	plant_moss04.jpg     	plant2   	7	moss      	25	moss04      	253	alive    	1	still	0	natural 	1	n	0	0        	 	0.0	0	115.499991299992	115.599984400033	0.0999931000405922
123420	100	82	stimuli/nonmovNat/rock/nmn_rock04.jpg            	1	2	1	nmn_rock04.jpg       	nonmovNat	5	rock      	30	rock04      	303	not_alive	0	still	0	natural 	1	n	0	0        	 	0.0	0	115.649995299988	115.74999099999	0.0999957000021823
123570	100	83	stimuli/plant2/palmtree/plant_palmtree06.jpg     	1	2	1	plant_palmtree06.jpg 	plant2   	7	palmtree  	27	palmtree06  	275	alive    	1	still	0	natural 	1	n	0	0        	 	0.0	0	115.799998600036	115.899992600025	0.0999939999892376
123720	100	84	stimuli/movArt/car/ma_car08.jpg                  	1	2	1	ma_car08.jpg         	movArt   	2	car       	5	car08       	57	not_alive	0	moves	1	artefact	0	n	0	0        	 	0.0	0	115.950003300037	116.050023299991	0.100019999954384
123870	100	85	stimuli/animals/horse/animal_horse02.jpg         	1	2	1	animal_horse02.jpg   	animals  	0	horse     	20	horse02     	201	alive    	1	moves	1	natural 	1	n	0	0        	 	0.0	0	116.100007600035	116.200002700032	0.0999950999976136
124020	100	86	stimuli/movArt/train/ma_train08.jpg              	1	2	1	ma_train08.jpg       	movArt   	2	train     	34	train08     	347	not_alive	0	moves	1	artefact	0	n	0	0        	 	0.0	0	116.250011800032	116.35000440001	0.0999925999785774
124170	100	87	stimuli/plant/grass/plant_grass07.jpg            	1	2	1	plant_grass07.jpg    	plant    	6	grass     	17	grass07     	176	alive    	1	still	0	natural 	1	n	0	0        	 	0.0	0	116.400013300008	116.500009400013	0.0999961000052281
124320	100	88	stimuli/animals2/tiger/animal_tiger07.jpg        	1	2	1	animal_tiger07.jpg   	animals2 	1	tiger     	33	tiger07     	336	alive    	1	moves	1	natural 	1	n	0	0        	 	0.0	0	116.550036400033	116.650040799985	0.100004399952013
124470	100	89	stimuli/animals/horse/animal_horse10.jpg         	1	2	1	animal_horse10.jpg   	animals  	0	horse     	20	horse10     	209	alive    	1	moves	1	natural 	1	n	0	0        	 	0.0	0	116.700025500031	116.800035300024	0.100009799993131
124620	100	90	stimuli/nonmovNat/crystal/nmn_crystal02.jpg      	1	2	1	nmn_crystal02.jpg    	nonmovNat	5	crystal   	10	crystal02   	101	not_alive	0	still	0	natural 	1	n	0	0        	 	0.0	0	116.85004390002	116.950016500021	0.0999726000009105
124770	100	91	stimuli/animals/dog/animal_dog09.jpg             	1	2	1	animal_dog09.jpg     	animals  	0	dog       	11	dog09       	118	alive    	1	moves	1	natural 	1	n	0	0        	 	0.0	0	117.000023800007	117.100016499986	0.0999926999793388
124920	100	92	stimuli/animals/cat/animal_cat09.jpg             	1	2	1	animal_cat09.jpg     	animals  	0	cat       	6	cat09       	68	alive    	1	moves	1	natural 	1	n	0	0        	 	0.0	0	117.150039500033	117.250022399996	0.0999828999629244
125070	100	93	stimuli/plant/cactus/plant_cactus05.jpg          	1	2	1	plant_cactus05.jpg   	plant    	6	cactus    	4	cactus05    	44	alive    	1	still	0	natural 	1	n	0	0        	 	0.0	0	117.300033900014	117.400032799982	0.099998899968341
125220	100	94	stimuli/nonmovArt/lock/nma_lock09.jpg            	1	2	1	nma_lock09.jpg       	nonmovArt	4	lock      	24	lock09      	248	not_alive	0	still	0	artefact	0	n	0	0        	 	0.0	0	117.450035899994	117.550036200031	0.100000300037209
125370	100	95	stimuli/plant/vine/plant_vine10.jpg              	1	2	1	plant_vine10.jpg     	plant    	6	vine      	36	vine10      	369	alive    	1	still	0	natural 	1	n	0	0        	 	0.0	0	117.600040199992	117.700034499983	0.099994299991522
125520	100	96	stimuli/nonmovNat/rock/nmn_rock08.jpg            	1	2	1	nmn_rock08.jpg       	nonmovNat	5	rock      	30	rock08      	307	not_alive	0	still	0	natural 	1	n	0	0        	 	0.0	0	117.750047300011	117.850039799989	0.0999924999778159
125670	100	97	stimuli/nonmovNat/cliff/nmn_cliff04.jpg          	1	2	1	nmn_cliff04.jpg      	nonmovNat	5	cliff     	7	cliff04     	73	not_alive	0	still	0	natural 	1	n	0	0        	 	0.0	0	117.900078300037	118.000045099994	0.0999667999567464
125820	100	98	stimuli/animals/dog/animal_dog07.jpg             	1	2	1	animal_dog07.jpg     	animals  	0	dog       	11	dog07       	116	alive    	1	moves	1	natural 	1	n	0	0        	 	0.0	0	118.050053599989	118.150056099985	0.100002499995753
125970	100	99	stimuli/movNat/hotspring/mn_hotspring07.jpg      	1	2	1	mn_hotspring07.jpg   	movNat   	3	hotspring 	21	hotspring07 	216	not_alive	0	moves	1	natural 	1	n	0	0        	 	0.0	0	118.200057699985	118.300052400038	0.0999947000527754
126120	100	100	stimuli/nonmovNat/sand/nmn_sand08.jpg            	1	2	1	nmn_sand08.jpg       	nonmovNat	5	sand      	31	sand08      	317	not_alive	0	still	0	natural 	1	n	0	0        	 	0.0	0	118.350061400037	118.450054800021	0.0999933999846689
126270	100	101	stimuli/plant/tree/plant_tree06.jpg              	1	2	1	plant_tree06.jpg     	plant    	6	tree      	35	tree06      	355	alive    	1	still	0	natural 	1	n	0	0        	 	0.0	0	118.500081500039	118.600058400014	0.0999768999754451
126420	100	102	stimuli/plant/flower/plant_flower06.jpg          	1	2	1	plant_flower06.jpg   	plant    	6	flower    	16	flower06    	165	alive    	1	still	0	natural 	1	n	0	0        	 	0.0	0	118.650094599987	118.750060499995	0.099965900008101
126570	100	103	stimuli/movArt/helicopter/ma_helicopter02.jpg    	1	2	1	ma_helicopter02.jpg  	movArt   	2	helicopter	19	helicopter02	191	not_alive	0	moves	1	artefact	0	n	0	0        	 	0.0	0	118.800090400036	118.900078899984	0.0999884999473579
126720	100	104	stimuli/plant/tree/plant_tree01.jpg              	1	2	1	plant_tree01.jpg     	plant    	6	tree      	35	tree01      	350	alive    	1	still	0	natural 	1	n	1	0        	 	0.0	0	118.95007750002	119.050069599994	0.0999920999747701
126870	100	105	stimuli/nonmovArt/lock/nma_lock07.jpg            	1	2	1	nma_lock07.jpg       	nonmovArt	4	lock      	24	lock07      	246	not_alive	0	still	0	artefact	0	n	0	0        	 	0.0	0	119.100081800018	119.200073899992	0.0999920999747701
127020	100	106	stimuli/nonmovArt/mug/nma_mug01.jpg              	1	2	1	nma_mug01.jpg        	nonmovArt	4	mug       	26	mug01       	260	not_alive	0	still	0	artefact	0	n	0	1        	f	0.29214839998167	1	119.250100600009	119.350085699989	0.0999850999796763
127170	100	107	stimuli/nonmovNat/sand/nmn_sand08.jpg            	1	2	1	nmn_sand08.jpg       	nonmovNat	5	sand      	31	sand08      	317	not_alive	0	still	0	natural 	1	n	0	0        	 	0.0	0	119.400105600012	119.500087700028	0.0999821000150405
127320	100	108	stimuli/movNat/hotspring/mn_hotspring06.jpg      	1	2	1	mn_hotspring06.jpg   	movNat   	3	hotspring 	21	hotspring06 	215	not_alive	0	moves	1	natural 	1	n	0	0        	 	0.0	0	119.550098399981	119.650103599997	0.100005200016312
127470	100	109	stimuli/plant2/clover/plant_clover10.jpg         	1	2	1	plant_clover10.jpg   	plant2   	7	clover    	9	clover10    	99	alive    	1	still	0	natural 	1	n	0	0        	 	0.0	0	119.700104999996	119.800098300038	0.0999933000421152
127620	100	110	stimuli/animals/dog/animal_dog01.jpg             	1	2	1	animal_dog01.jpg     	animals  	0	dog       	11	dog01       	110	alive    	1	moves	1	natural 	1	n	0	0        	 	0.0	0	119.850105400023	119.950093500025	0.0999881000025198
127770	100	111	stimuli/plant/vine/plant_vine08.jpg              	1	2	1	plant_vine08.jpg     	plant    	6	vine      	36	vine08      	367	alive    	1	still	0	natural 	1	n	0	0        	 	0.0	0	120.000108700013	120.100108399987	0.0999996999744326
127920	100	112	stimuli/nonmovNat/shell/nmn_shell04.jpg          	1	2	1	nmn_shell04.jpg      	nonmovNat	5	shell     	32	shell04     	323	not_alive	0	still	0	natural 	1	n	0	0        	 	0.0	0	120.150095299992	120.250102600025	0.100007300032303
128070	100	113	stimuli/movArt/train/ma_train08.jpg              	1	2	1	ma_train08.jpg       	movArt   	2	train     	34	train08     	347	not_alive	0	moves	1	artefact	0	n	0	0        	 	0.0	0	120.300113500038	120.400104500004	0.0999909999663942
128220	100	114	stimuli/nonmovArt/clothespeg/nma_clothespeg04.jpg	1	2	1	nma_clothespeg04.jpg 	nonmovArt	4	clothespeg	8	clothespeg04	83	not_alive	0	still	0	artefact	0	n	0	0        	 	0.0	0	120.450136400003	120.550109700009	0.0999733000062406
128370	100	115	stimuli/plant/flower/plant_flower07.jpg          	1	2	1	plant_flower07.jpg   	plant    	6	flower    	16	flower07    	166	alive    	1	still	0	natural 	1	n	0	0        	 	0.0	0	120.600120200019	120.700114600011	0.0999943999922834
128520	100	116	stimuli/animals/eagle/animal_eagle04.jpg         	1	2	1	animal_eagle04.jpg   	animals  	0	eagle     	13	eagle04     	133	alive    	1	moves	1	natural 	1	n	0	0        	 	0.0	0	120.750123800011	120.850132799998	0.10000899998704
128670	100	117	stimuli/animals/eagle/animal_eagle09.jpg         	1	2	1	animal_eagle09.jpg   	animals  	0	eagle     	13	eagle09     	138	alive    	1	moves	1	natural 	1	n	0	0        	 	0.0	0	120.900126699999	121.000122400001	0.0999957000021823
128820	100	118	stimuli/nonmovArt/mug/nma_mug10.jpg              	1	2	1	nma_mug10.jpg        	nonmovArt	4	mug       	26	mug10       	269	not_alive	0	still	0	artefact	0	n	0	0        	 	0.0	0	121.050132300006	121.150128600013	0.099996300006751
128970	100	119	stimuli/animals/dolphin/animal_dolphin01.jpg     	1	2	1	animal_dolphin01.jpg 	animals  	0	dolphin   	12	dolphin01   	120	alive    	1	moves	1	natural 	1	n	0	0        	 	0.0	0	121.200136300002	121.300129899988	0.0999935999861918
129120	100	120	stimuli/animals/horse/animal_horse01.jpg         	1	2	1	animal_horse01.jpg   	animals  	0	horse     	20	horse01     	200	alive    	1	moves	1	natural 	1	n	0	0        	 	0.0	0	121.350139599992	121.450133599981	0.0999939999892376
129270	100	121	stimuli/plant2/fern/plant_fern07.jpg             	1	2	1	plant_fern07.jpg     	plant2   	7	fern      	14	fern07      	146	alive    	1	still	0	natural 	1	n	0	0        	 	0.0	0	121.500144299993	121.600166400021	0.100022100028582
129420	100	122	stimuli/plant/flower/plant_flower04.jpg          	1	2	1	plant_flower04.jpg   	plant    	6	flower    	16	flower04    	163	alive    	1	still	0	natural 	1	n	0	0        	 	0.0	0	121.650148999994	121.750144099991	0.0999950999976136
129570	100	123	stimuli/nonmovArt/mug/nma_mug06.jpg              	1	2	1	nma_mug06.jpg        	nonmovArt	4	mug       	26	mug06       	265	not_alive	0	still	0	artefact	0	n	0	0        	 	0.0	0	121.800156400015	121.900147999986	0.0999915999709628
129720	100	124	stimuli/plant2/moss/plant_moss01.jpg             	1	2	1	plant_moss01.jpg     	plant2   	7	moss      	25	moss01      	250	alive    	1	still	0	natural 	1	n	0	0        	 	0.0	0	121.950156200037	122.05015840003	0.100002199993469
129870	100	125	stimuli/animals/dolphin/animal_dolphin08.jpg     	1	2	1	animal_dolphin08.jpg 	animals  	0	dolphin   	12	dolphin08   	127	alive    	1	moves	1	natural 	1	n	0	0        	 	0.0	0	122.100179000001	122.20015530003	0.0999763000290841
130020	100	126	stimuli/plant/vine/plant_vine10.jpg              	1	2	1	plant_vine10.jpg     	plant    	6	vine      	36	vine10      	369	alive    	1	still	0	natural 	1	n	0	0        	 	0.0	0	122.250163900026	122.350187400007	0.100023499981035
130170	100	127	stimuli/movNat/river/mn_river09.jpg              	1	2	1	mn_river09.jpg       	movNat   	3	river     	29	river09     	298	not_alive	0	moves	1	natural 	1	n	0	0        	 	0.0	0	122.400168400025	122.500164700032	0.099996300006751
130320	100	128	stimuli/nonmovArt/headphones/nma_headphones10.jpg	1	2	1	nma_headphones10.jpg 	nonmovArt	4	headphones	18	headphones10	189	not_alive	0	still	0	artefact	0	n	0	0        	 	0.0	0	122.550174799981	122.650168800028	0.0999940000474453
130470	100	129	stimuli/animals/dolphin/animal_dolphin09.jpg     	1	2	1	animal_dolphin09.jpg 	animals  	0	dolphin   	12	dolphin09   	128	alive    	1	moves	1	natural 	1	n	0	0        	 	0.0	0	122.700175500009	122.800169299997	0.0999937999877147
130620	100	130	stimuli/animals2/pigeon/animal_pigeon03.jpg      	1	2	1	animal_pigeon03.jpg  	animals2 	1	pigeon    	28	pigeon03    	282	alive    	1	moves	1	natural 	1	n	0	0        	 	0.0	0	122.850181000016	122.950191300013	0.100010299996939
130770	100	131	stimuli/nonmovArt/mug/nma_mug05.jpg              	1	2	1	nma_mug05.jpg        	nonmovArt	4	mug       	26	mug05       	264	not_alive	0	still	0	artefact	0	n	0	0        	 	0.0	0	123.000185000012	123.100190700032	0.10000570002012
130920	100	132	stimuli/nonmovNat/crystal/nmn_crystal05.jpg      	1	2	1	nmn_crystal05.jpg    	nonmovNat	5	crystal   	10	crystal05   	104	not_alive	0	still	0	natural 	1	n	0	0        	 	0.0	0	123.15018669999	123.250182599993	0.0999959000037052
131070	100	133	stimuli/animals2/tiger/animal_tiger08.jpg        	1	2	1	animal_tiger08.jpg   	animals2 	1	tiger     	33	tiger08     	337	alive    	1	moves	1	natural 	1	n	0	0        	 	0.0	0	123.300194700016	123.400184500031	0.0999898000154644
131221	100	134	stimuli/movArt/helicopter/ma_helicopter06.jpg    	1	2	1	ma_helicopter06.jpg  	movArt   	2	helicopter	19	helicopter06	195	not_alive	0	moves	1	artefact	0	n	1	0        	 	0.0	0	123.450231100025	123.550190799986	0.0999596999608912
131371	100	135	stimuli/movNat/hotspring/mn_hotspring04.jpg      	1	2	1	mn_hotspring04.jpg   	movNat   	3	hotspring 	21	hotspring04 	213	not_alive	0	moves	1	natural 	1	n	0	0        	 	0.0	0	123.600201499998	123.700194500037	0.0999930000398308
131521	100	136	stimuli/movArt/helicopter/ma_helicopter04.jpg    	1	2	1	ma_helicopter04.jpg  	movArt   	2	helicopter	19	helicopter04	193	not_alive	0	moves	1	artefact	0	n	0	1        	f	0.292167100007646	1	123.750205999997	123.850196600019	0.099990600021556
131671	100	137	stimuli/nonmovArt/bench/nma_bench06.jpg          	1	2	1	nma_bench06.jpg      	nonmovArt	4	bench     	1	bench06     	15	not_alive	0	still	0	artefact	0	n	0	0        	 	0.0	0	123.900210099993	124.000202900032	0.0999928000383079
131821	100	138	stimuli/nonmovNat/cliff/nmn_cliff10.jpg          	1	2	1	nmn_cliff10.jpg      	nonmovNat	5	cliff     	7	cliff10     	79	not_alive	0	still	0	natural 	1	n	0	0        	 	0.0	0	124.050228000036	124.150206700026	0.0999786999891512
131971	100	139	stimuli/animals/horse/animal_horse10.jpg         	1	2	1	animal_horse10.jpg   	animals  	0	horse     	20	horse10     	209	alive    	1	moves	1	natural 	1	n	0	0        	 	0.0	0	124.200245100015	124.300209700014	0.0999645999982022
132121	100	140	stimuli/animals/eagle/animal_eagle02.jpg         	1	2	1	animal_eagle02.jpg   	animals  	0	eagle     	13	eagle02     	131	alive    	1	moves	1	natural 	1	n	0	0        	 	0.0	0	124.350220900029	124.450238700025	0.10001779999584
132271	100	141	stimuli/nonmovNat/crystal/nmn_crystal08.jpg      	1	2	1	nmn_crystal08.jpg    	nonmovNat	5	crystal   	10	crystal08   	107	not_alive	0	still	0	natural 	1	n	0	0        	 	0.0	0	124.500225800031	124.6002171	0.0999912999686785
132421	100	142	stimuli/plant2/clover/plant_clover06.jpg         	1	2	1	plant_clover06.jpg   	plant2   	7	clover    	9	clover06    	95	alive    	1	still	0	natural 	1	n	0	0        	 	0.0	0	124.650227500009	124.750222500006	0.0999949999968521
132571	100	143	stimuli/movArt/car/ma_car01.jpg                  	1	2	1	ma_car01.jpg         	movArt   	2	car       	5	car01       	50	not_alive	0	moves	1	artefact	0	n	0	0        	 	0.0	0	124.800241300021	124.900225699996	0.0999843999743462
132721	100	144	stimuli/plant/vine/plant_vine03.jpg              	1	2	1	plant_vine03.jpg     	plant    	6	vine      	36	vine03      	362	alive    	1	still	0	natural 	1	n	0	0        	 	0.0	0	124.950251500006	125.050230299996	0.0999787999899127
132871	100	145	stimuli/plant2/lemontree/plant_lemontree08.jpg   	1	2	1	plant_lemontree08.jpg	plant2   	7	lemontree 	22	lemontree08 	227	alive    	1	still	0	natural 	1	n	0	0        	 	0.0	0	125.100239299994	125.200240300037	0.100001000042539
133021	100	146	stimuli/movNat/waves/mn_waves09.jpg              	1	2	1	mn_waves09.jpg       	movNat   	3	waves     	38	waves09     	388	not_alive	0	moves	1	natural 	1	n	0	0        	 	0.0	0	125.250245300005	125.350238199986	0.0999928999808617
133171	100	147	stimuli/plant/cactus/plant_cactus09.jpg          	1	2	1	plant_cactus09.jpg   	plant    	6	cactus    	4	cactus09    	48	alive    	1	still	0	natural 	1	n	0	0        	 	0.0	0	125.400269799982	125.500242299982	0.099972500000149
133321	100	148	stimuli/movArt/boat/ma_boat05.jpg                	1	2	1	ma_boat05.jpg        	movArt   	2	boat      	2	boat05      	24	not_alive	0	moves	1	artefact	0	n	0	0        	 	0.0	0	125.550259999989	125.650245800032	0.0999858000432141
133471	100	149	stimuli/nonmovNat/cliff/nmn_cliff03.jpg          	1	2	1	nmn_cliff03.jpg      	nonmovNat	5	cliff     	7	cliff03     	72	not_alive	0	still	0	natural 	1	n	0	0        	 	0.0	0	125.70025709999	125.800250500033	0.0999934000428766
133621	100	150	stimuli/movArt/train/ma_train09.jpg              	1	2	1	ma_train09.jpg       	movArt   	2	train     	34	train09     	348	not_alive	0	moves	1	artefact	0	n	0	0        	 	0.0	0	125.850280200015	125.950253900024	0.0999737000092864
133771	100	151	stimuli/movNat/waterfall/mn_waterfall08.jpg      	1	2	1	mn_waterfall08.jpg   	movNat   	3	waterfall 	37	waterfall08 	377	not_alive	0	moves	1	natural 	1	n	0	0        	 	0.0	0	126.000264200033	126.10025790002	0.0999936999869533
133921	100	152	stimuli/nonmovArt/headphones/nma_headphones03.jpg	1	2	1	nma_headphones03.jpg 	nonmovArt	4	headphones	18	headphones03	182	not_alive	0	still	0	artefact	0	n	0	0        	 	0.0	0	126.150267500023	126.250263300026	0.0999958000029437
134071	100	153	stimuli/plant2/fern/plant_fern02.jpg             	1	2	1	plant_fern02.jpg     	plant2   	7	fern      	14	fern02      	141	alive    	1	still	0	natural 	1	n	0	0        	 	0.0	0	126.300273900037	126.400280900009	0.100006999971811
134221	100	154	stimuli/plant2/fern/plant_fern06.jpg             	1	2	1	plant_fern06.jpg     	plant2   	7	fern      	14	fern06      	145	alive    	1	still	0	natural 	1	n	0	0        	 	0.0	0	126.450276000018	126.550270700012	0.0999946999945678
134371	100	155	stimuli/plant2/moss/plant_moss10.jpg             	1	2	1	plant_moss10.jpg     	plant2   	7	moss      	25	moss10      	259	alive    	1	still	0	natural 	1	n	0	0        	 	0.0	0	126.600279500009	126.7002737	0.0999941999907605
134521	100	156	stimuli/plant2/clover/plant_clover03.jpg         	1	2	1	plant_clover03.jpg   	plant2   	7	clover    	9	clover03    	92	alive    	1	still	0	natural 	1	n	0	0        	 	0.0	0	126.750284800015	126.850280100014	0.0999952999991365
134671	100	157	stimuli/nonmovArt/headphones/nma_headphones05.jpg	1	2	1	nma_headphones05.jpg 	nonmovArt	4	headphones	18	headphones05	184	not_alive	0	still	0	artefact	0	n	0	0        	 	0.0	0	126.9002874	127.000282499997	0.0999950999976136
134821	100	158	stimuli/plant/tree/plant_tree03.jpg              	1	2	1	plant_tree03.jpg     	plant    	6	tree      	35	tree03      	352	alive    	1	still	0	natural 	1	n	0	0        	 	0.0	0	127.050291499996	127.15030899999	0.100017499993555
134971	100	159	stimuli/nonmovArt/clothespeg/nma_clothespeg08.jpg	1	2	1	nma_clothespeg08.jpg 	nonmovArt	4	clothespeg	8	clothespeg08	87	not_alive	0	still	0	artefact	0	n	0	0        	 	0.0	0	127.200297300005	127.300289999985	0.0999926999793388
137271	100	160	stimuli/plant/tree/plant_tree08.jpg              	1	3	1	plant_tree08.jpg     	plant    	6	tree      	35	tree08      	357	alive    	1	still	0	natural 	1	n	0	0        	 	0.0	0	129.500360900012	129.600353599992	0.0999926999793388
137421	100	161	stimuli/movNat/waterfall/mn_waterfall08.jpg      	1	3	1	mn_waterfall08.jpg   	movNat   	3	waterfall 	37	waterfall08 	377	not_alive	0	moves	1	natural 	1	n	0	0        	 	0.0	0	129.650360000029	129.750354700023	0.0999946999945678
137571	100	162	stimuli/movNat/river/mn_river08.jpg              	1	3	1	mn_river08.jpg       	movNat   	3	river     	29	river08     	297	not_alive	0	moves	1	natural 	1	n	0	0        	 	0.0	0	129.800363700022	129.900359100022	0.0999953999998979
137721	100	163	stimuli/movArt/car/ma_car03.jpg                  	1	3	1	ma_car03.jpg         	movArt   	2	car       	5	car03       	52	not_alive	0	moves	1	artefact	0	n	0	0        	 	0.0	0	129.950369100028	130.050391099998	0.100021999969613
137871	100	164	stimuli/animals2/whale/animal_whale09.jpg        	1	3	1	animal_whale09.jpg   	animals2 	1	whale     	39	whale09     	398	alive    	1	moves	1	natural 	1	n	0	0        	 	0.0	0	130.100373700028	130.200366800011	0.0999930999823846
138021	100	165	stimuli/plant/grass/plant_grass01.jpg            	1	3	1	plant_grass01.jpg    	plant    	6	grass     	17	grass01     	170	alive    	1	still	0	natural 	1	n	0	0        	 	0.0	0	130.250380999991	130.350371600012	0.099990600021556
138171	100	166	stimuli/nonmovArt/bench/nma_bench04.jpg          	1	3	1	nma_bench04.jpg      	nonmovArt	4	bench     	1	bench04     	13	not_alive	0	still	0	artefact	0	n	0	0        	 	0.0	0	130.400382200023	130.500375300006	0.0999930999823846
138321	100	167	stimuli/animals/dog/animal_dog10.jpg             	1	3	1	animal_dog10.jpg     	animals  	0	dog       	11	dog10       	119	alive    	1	moves	1	natural 	1	n	0	0        	 	0.0	0	130.550384300004	130.650377599988	0.0999932999839075
138471	100	168	stimuli/plant/grass/plant_grass03.jpg            	1	3	1	plant_grass03.jpg    	plant    	6	grass     	17	grass03     	172	alive    	1	still	0	natural 	1	n	0	0        	 	0.0	0	130.700387499994	130.800410000025	0.100022500031628
138621	100	169	stimuli/nonmovNat/sand/nmn_sand06.jpg            	1	3	1	nmn_sand06.jpg       	nonmovNat	5	sand      	31	sand06      	315	not_alive	0	still	0	natural 	1	n	0	0        	 	0.0	0	130.850392699998	130.950386099983	0.0999933999846689
138771	100	170	stimuli/movArt/car/ma_car02.jpg                  	1	3	1	ma_car02.jpg         	movArt   	2	car       	5	car02       	51	not_alive	0	moves	1	artefact	0	n	0	0        	 	0.0	0	131.000417300034	131.100390999985	0.0999736999510787
138921	100	171	stimuli/movArt/train/ma_train09.jpg              	1	3	1	ma_train09.jpg       	movArt   	2	train     	34	train09     	348	not_alive	0	moves	1	artefact	0	n	0	0        	 	0.0	0	131.150403700012	131.250394300034	0.099990600021556
139071	100	172	stimuli/animals2/lemur/animal_lemur03.jpg        	1	3	1	animal_lemur03.jpg   	animals2 	1	lemur     	23	lemur03     	232	alive    	1	moves	1	natural 	1	n	0	0        	 	0.0	0	131.300406800001	131.40041110001	0.100004300009459
139221	100	173	stimuli/animals/eagle/animal_eagle04.jpg         	1	3	1	animal_eagle04.jpg   	animals  	0	eagle     	13	eagle04     	133	alive    	1	moves	1	natural 	1	n	0	0        	 	0.0	0	131.450410299993	131.550413999998	0.100003700004891
139371	100	174	stimuli/movArt/helicopter/ma_helicopter07.jpg    	1	3	1	ma_helicopter07.jpg  	movArt   	2	helicopter	19	helicopter07	196	not_alive	0	moves	1	artefact	0	n	0	0        	 	0.0	0	131.600414699991	131.70040620002	0.0999915000284091
139521	100	175	stimuli/movNat/waterfall/mn_waterfall06.jpg      	1	3	1	mn_waterfall06.jpg   	movNat   	3	waterfall 	37	waterfall06 	375	not_alive	0	moves	1	natural 	1	n	0	0        	 	0.0	0	131.750416000024	131.850412300031	0.099996300006751
139671	100	176	stimuli/animals2/tiger/animal_tiger02.jpg        	1	3	1	animal_tiger02.jpg   	animals2 	1	tiger     	33	tiger02     	331	alive    	1	moves	1	natural 	1	n	0	0        	 	0.0	0	131.900453399983	132.000414700015	0.099961300031282
139821	100	177	stimuli/animals2/bee/animal_bee09.jpg            	1	3	1	animal_bee09.jpg     	animals2 	1	bee       	0	bee09       	8	alive    	1	moves	1	natural 	1	n	0	0        	 	0.0	0	132.050425000023	132.150431499991	0.100006499968003
139971	100	178	stimuli/movNat/hotspring/mn_hotspring05.jpg      	1	3	1	mn_hotspring05.jpg   	movNat   	3	hotspring 	21	hotspring05 	214	not_alive	0	moves	1	natural 	1	n	0	0        	 	0.0	0	132.200428700016	132.300423700013	0.0999949999968521
140121	100	179	stimuli/nonmovNat/shell/nmn_shell01.jpg          	1	3	1	nmn_shell01.jpg      	nonmovNat	5	shell     	32	shell01     	320	not_alive	0	still	0	natural 	1	n	0	0        	 	0.0	0	132.350431500003	132.450428200013	0.0999967000097968
140271	100	180	stimuli/plant/cactus/plant_cactus01.jpg          	1	3	1	plant_cactus01.jpg   	plant    	6	cactus    	4	cactus01    	40	alive    	1	still	0	natural 	1	n	0	0        	 	0.0	0	132.50045360002	132.600430299994	0.0999766999739222
140421	100	181	stimuli/nonmovNat/sand/nmn_sand08.jpg            	1	3	1	nmn_sand08.jpg       	nonmovNat	5	sand      	31	sand08      	317	not_alive	0	still	0	natural 	1	n	0	0        	 	0.0	0	132.650468399981	132.750433699985	0.0999653000035323
140571	100	182	stimuli/animals2/pigeon/animal_pigeon05.jpg      	1	3	1	animal_pigeon05.jpg  	animals2 	1	pigeon    	28	pigeon05    	284	alive    	1	moves	1	natural 	1	n	0	0        	 	0.0	0	132.800445100001	132.900451200025	0.100006100023165
140721	100	183	stimuli/nonmovNat/shell/nmn_shell07.jpg          	1	3	1	nmn_shell07.jpg      	nonmovNat	5	shell     	32	shell07     	326	not_alive	0	still	0	natural 	1	n	0	0        	 	0.0	0	132.950447999989	133.050444499997	0.0999965000082739
140871	100	184	stimuli/animals/cat/animal_cat04.jpg             	1	3	1	animal_cat04.jpg     	animals  	0	cat       	6	cat04       	63	alive    	1	moves	1	natural 	1	n	0	0        	 	0.0	0	133.100451500039	133.200446600036	0.0999950999976136
141021	100	185	stimuli/plant2/clover/plant_clover02.jpg         	1	3	1	plant_clover02.jpg   	plant2   	7	clover    	9	clover02    	91	alive    	1	still	0	natural 	1	n	0	0        	 	0.0	0	133.250473599997	133.350450500031	0.0999769000336528
141171	100	186	stimuli/animals2/bee/animal_bee10.jpg            	1	3	1	animal_bee10.jpg     	animals2 	1	bee       	0	bee10       	9	alive    	1	moves	1	natural 	1	n	0	0        	 	0.0	0	133.400474500027	133.500454700028	0.099980200000573
141321	100	187	stimuli/movNat/fire/mn_fire03.jpg                	1	3	1	mn_fire03.jpg        	movNat   	3	fire      	15	fire03      	152	not_alive	0	moves	1	natural 	1	n	0	0        	 	0.0	0	133.550466099987	133.650463600003	0.0999975000158884
141471	100	188	stimuli/animals/dog/animal_dog05.jpg             	1	3	1	animal_dog05.jpg     	animals  	0	dog       	11	dog05       	114	alive    	1	moves	1	natural 	1	n	0	0        	 	0.0	0	133.700468200026	133.800462500018	0.099994299991522
141621	100	189	stimuli/nonmovArt/lock/nma_lock09.jpg            	1	3	1	nma_lock09.jpg       	nonmovArt	4	lock      	24	lock09      	248	not_alive	0	still	0	artefact	0	n	0	0        	 	0.0	0	133.850475199986	133.950464699999	0.0999895000131801
141771	100	190	stimuli/nonmovArt/bench/nma_bench09.jpg          	1	3	1	nma_bench09.jpg      	nonmovArt	4	bench     	1	bench09     	18	not_alive	0	still	0	artefact	0	n	0	0        	 	0.0	0	134.000476500019	134.10047070001	0.0999941999907605
141921	100	191	stimuli/plant2/palmtree/plant_palmtree08.jpg     	1	3	1	plant_palmtree08.jpg 	plant2   	7	palmtree  	27	palmtree08  	277	alive    	1	still	0	natural 	1	n	0	0        	 	0.0	0	134.150478399999	134.250474100001	0.0999957000021823
142071	100	192	stimuli/animals2/whale/animal_whale03.jpg        	1	3	1	animal_whale03.jpg   	animals2 	1	whale     	39	whale03     	392	alive    	1	moves	1	natural 	1	n	0	0        	 	0.0	0	134.30048700003	134.40047980001	0.0999927999801002
142221	100	193	stimuli/movNat/waves/mn_waves06.jpg              	1	3	1	mn_waves06.jpg       	movNat   	3	waves     	38	waves06     	385	not_alive	0	moves	1	natural 	1	n	1	0        	 	0.0	0	134.450487099995	134.550481699989	0.0999945999938063
142371	100	194	stimuli/movArt/bus/ma_bus09.jpg                  	1	3	1	ma_bus09.jpg         	movArt   	2	bus       	3	bus09       	38	not_alive	0	moves	1	artefact	0	n	0	0        	 	0.0	0	134.600493800011	134.700485599984	0.0999917999724858
142521	100	195	stimuli/plant/tree/plant_tree01.jpg              	1	3	1	plant_tree01.jpg     	plant    	6	tree      	35	tree01      	350	alive    	1	still	0	natural 	1	n	0	1        	f	0.292132900038268	1	134.750498500012	134.850489899982	0.09999139996944
142671	100	196	stimuli/movNat/fire/mn_fire02.jpg                	1	3	1	mn_fire02.jpg        	movNat   	3	fire      	15	fire02      	151	not_alive	0	moves	1	natural 	1	n	0	0        	 	0.0	0	134.900502000004	135.000494100037	0.0999921000329778
142821	100	197	stimuli/movNat/river/mn_river06.jpg              	1	3	1	mn_river06.jpg       	movNat   	3	river     	29	river06     	295	not_alive	0	moves	1	natural 	1	n	0	0        	 	0.0	0	135.050507800013	135.150496000017	0.0999882000032812
142971	100	198	stimuli/movArt/train/ma_train06.jpg              	1	3	1	ma_train06.jpg       	movArt   	2	train     	34	train06     	345	not_alive	0	moves	1	artefact	0	n	0	0        	 	0.0	0	135.200509599992	135.300504899991	0.0999952999991365
143121	100	199	stimuli/plant/grass/plant_grass10.jpg            	1	3	1	plant_grass10.jpg    	plant    	6	grass     	17	grass10     	179	alive    	1	still	0	natural 	1	n	0	0        	 	0.0	0	135.350513199985	135.450505300018	0.0999921000329778
143271	100	200	stimuli/movNat/hotspring/mn_hotspring04.jpg      	1	3	1	mn_hotspring04.jpg   	movNat   	3	hotspring 	21	hotspring04 	213	not_alive	0	moves	1	natural 	1	n	0	0        	 	0.0	0	135.500534999999	135.600510500022	0.0999755000229925
143421	100	201	stimuli/animals2/whale/animal_whale09.jpg        	1	3	1	animal_whale09.jpg   	animals2 	1	whale     	39	whale09     	398	alive    	1	moves	1	natural 	1	n	0	0        	 	0.0	0	135.650522599986	135.750513800012	0.0999912000261247
143571	100	202	stimuli/nonmovNat/cliff/nmn_cliff10.jpg          	1	3	1	nmn_cliff10.jpg      	nonmovNat	5	cliff     	7	cliff10     	79	not_alive	0	still	0	natural 	1	n	0	0        	 	0.0	0	135.800523000013	135.900517100003	0.0999940999899991
143721	100	203	stimuli/animals2/tiger/animal_tiger07.jpg        	1	3	1	animal_tiger07.jpg   	animals2 	1	tiger     	33	tiger07     	336	alive    	1	moves	1	natural 	1	n	0	0        	 	0.0	0	135.950527700013	136.050523400016	0.0999957000021823
143871	100	204	stimuli/nonmovNat/shell/nmn_shell09.jpg          	1	3	1	nmn_shell09.jpg      	nonmovNat	5	shell     	32	shell09     	328	not_alive	0	still	0	natural 	1	n	0	0        	 	0.0	0	136.10054710001	136.200533399999	0.0999862999888137
144021	100	205	stimuli/animals/cat/animal_cat07.jpg             	1	3	1	animal_cat07.jpg     	animals  	0	cat       	6	cat07       	66	alive    	1	moves	1	natural 	1	n	0	0        	 	0.0	0	136.250543000002	136.350537999999	0.0999949999968521
144171	100	206	stimuli/plant2/lemontree/plant_lemontree01.jpg   	1	3	1	plant_lemontree01.jpg	plant2   	7	lemontree 	22	lemontree01 	220	alive    	1	still	0	natural 	1	n	0	0        	 	0.0	0	136.400545899989	136.500544400013	0.0999985000235029
144321	100	207	stimuli/movNat/fire/mn_fire08.jpg                	1	3	1	mn_fire08.jpg        	movNat   	3	fire      	15	fire08      	157	not_alive	0	moves	1	natural 	1	n	0	0        	 	0.0	0	136.550553400011	136.650556900015	0.100003500003368
144471	100	208	stimuli/animals/dog/animal_dog10.jpg             	1	3	1	animal_dog10.jpg     	animals  	0	dog       	11	dog10       	119	alive    	1	moves	1	natural 	1	n	1	0        	 	0.0	0	136.700553900038	136.800548000028	0.0999940999899991
144621	100	209	stimuli/movArt/bus/ma_bus09.jpg                  	1	3	1	ma_bus09.jpg         	movArt   	2	bus       	3	bus09       	38	not_alive	0	moves	1	artefact	0	n	0	1        	f	0.251959999965038	1	136.850572100026	136.950552000024	0.0999798999982886
144771	100	210	stimuli/nonmovArt/clothespeg/nma_clothespeg08.jpg	1	3	1	nma_clothespeg08.jpg 	nonmovArt	4	clothespeg	8	clothespeg08	87	not_alive	0	still	0	artefact	0	n	0	0        	 	0.0	0	137.000543800008	137.100578800018	0.100035000010394
144921	100	211	stimuli/animals/horse/animal_horse05.jpg         	1	3	1	animal_horse05.jpg   	animals  	0	horse     	20	horse05     	204	alive    	1	moves	1	natural 	1	n	1	0        	 	0.0	0	137.150590999983	137.250586399983	0.0999953999998979
145071	100	212	stimuli/movNat/waves/mn_waves10.jpg              	1	3	1	mn_waves10.jpg       	movNat   	3	waves     	38	waves10     	389	not_alive	0	moves	1	natural 	1	n	0	0        	 	0.0	0	137.300592300016	137.400570099999	0.0999777999822982
145221	100	213	stimuli/plant2/palmtree/plant_palmtree05.jpg     	1	3	1	plant_palmtree05.jpg 	plant2   	7	palmtree  	27	palmtree05  	274	alive    	1	still	0	natural 	1	n	0	0        	 	0.0	0	137.450579800003	137.55057349999	0.0999936999869533
145371	100	214	stimuli/nonmovArt/lock/nma_lock06.jpg            	1	3	1	nma_lock06.jpg       	nonmovArt	4	lock      	24	lock06      	245	not_alive	0	still	0	artefact	0	n	0	0        	 	0.0	0	137.600603100029	137.700593599991	0.0999904999625869
145521	100	215	stimuli/animals2/bee/animal_bee09.jpg            	1	3	1	animal_bee09.jpg     	animals2 	1	bee       	0	bee09       	8	alive    	1	moves	1	natural 	1	n	0	0        	 	0.0	0	137.750588700001	137.850600900012	0.100012200011406
145671	100	216	stimuli/movArt/boat/ma_boat02.jpg                	1	3	1	ma_boat02.jpg        	movArt   	2	boat      	2	boat02      	21	not_alive	0	moves	1	artefact	0	n	0	0        	 	0.0	0	137.900609200005	138.000602099986	0.0999928999808617
145821	100	217	stimuli/animals/dolphin/animal_dolphin06.jpg     	1	3	1	animal_dolphin06.jpg 	animals  	0	dolphin   	12	dolphin06   	125	alive    	1	moves	1	natural 	1	n	1	0        	 	0.0	0	138.050607600017	138.150606799987	0.0999991999706253
145971	100	218	stimuli/animals2/pigeon/animal_pigeon06.jpg      	1	3	1	animal_pigeon06.jpg  	animals2 	1	pigeon    	28	pigeon06    	285	alive    	1	moves	1	natural 	1	n	0	0        	 	0.0	0	138.200603200006	138.300610100036	0.100006900029257
146121	100	219	stimuli/nonmovNat/rock/nmn_rock03.jpg            	1	3	1	nmn_rock03.jpg       	nonmovNat	5	rock      	30	rock03      	302	not_alive	0	still	0	natural 	1	n	0	1        	f	0.39197310002055	1	138.350602800027	138.450600899989	0.0999980999622494
146271	100	220	stimuli/nonmovNat/crystal/nmn_crystal08.jpg      	1	3	1	nmn_crystal08.jpg    	nonmovNat	5	crystal   	10	crystal08   	107	not_alive	0	still	0	natural 	1	n	0	0        	 	0.0	0	138.500625999994	138.600620299985	0.099994299991522
146421	100	221	stimuli/nonmovNat/rock/nmn_rock02.jpg            	1	3	1	nmn_rock02.jpg       	nonmovNat	5	rock      	30	rock02      	301	not_alive	0	still	0	natural 	1	n	0	0        	 	0.0	0	138.650628100033	138.750621300016	0.099993199983146
146571	100	222	stimuli/nonmovArt/lock/nma_lock06.jpg            	1	3	1	nma_lock06.jpg       	nonmovArt	4	lock      	24	lock06      	245	not_alive	0	still	0	artefact	0	n	0	0        	 	0.0	0	138.800633799983	138.90062640002	0.099992600036785
146721	100	223	stimuli/plant/flower/plant_flower01.jpg          	1	3	1	plant_flower01.jpg   	plant    	6	flower    	16	flower01    	160	alive    	1	still	0	natural 	1	n	0	0        	 	0.0	0	138.950638599985	139.050624000025	0.0999854000401683
146871	100	224	stimuli/plant/flower/plant_flower03.jpg          	1	3	1	plant_flower03.jpg   	plant    	6	flower    	16	flower03    	162	alive    	1	still	0	natural 	1	n	0	0        	 	0.0	0	139.100640300021	139.200637200032	0.0999969000113197
147021	100	225	stimuli/animals/cat/animal_cat03.jpg             	1	3	1	animal_cat03.jpg     	animals  	0	cat       	6	cat03       	62	alive    	1	moves	1	natural 	1	n	0	0        	 	0.0	0	139.250628900016	139.3506223	0.0999933999846689
147171	100	226	stimuli/plant/vine/plant_vine05.jpg              	1	3	1	plant_vine05.jpg     	plant    	6	vine      	36	vine05      	364	alive    	1	still	0	natural 	1	n	0	0        	 	0.0	0	139.400635100028	139.500641699997	0.100006599968765
147321	100	227	stimuli/animals2/lemur/animal_lemur01.jpg        	1	3	1	animal_lemur01.jpg   	animals2 	1	lemur     	23	lemur01     	230	alive    	1	moves	1	natural 	1	n	0	0        	 	0.0	0	139.550652400008	139.65063009999	0.0999776999815367
147471	100	228	stimuli/movArt/bus/ma_bus08.jpg                  	1	3	1	ma_bus08.jpg         	movArt   	2	bus       	3	bus08       	37	not_alive	0	moves	1	artefact	0	n	0	0        	 	0.0	0	139.700653300039	139.800632600032	0.0999792999937199
147621	100	229	stimuli/plant2/moss/plant_moss05.jpg             	1	3	1	plant_moss05.jpg     	plant2   	7	moss      	25	moss05      	254	alive    	1	still	0	natural 	1	n	0	0        	 	0.0	0	139.8506452	139.950660800037	0.100015600037295
147771	100	230	stimuli/nonmovNat/rock/nmn_rock09.jpg            	1	3	1	nmn_rock09.jpg       	nonmovNat	5	rock      	30	rock09      	308	not_alive	0	still	0	natural 	1	n	0	0        	 	0.0	0	140.000664699997	140.100617500022	0.0999528000247665
147921	100	231	stimuli/plant/cactus/plant_cactus04.jpg          	1	3	1	plant_cactus04.jpg   	plant    	6	cactus    	4	cactus04    	43	alive    	1	still	0	natural 	1	n	0	0        	 	0.0	0	140.150668399991	140.250661500031	0.0999931000405922
148071	100	232	stimuli/nonmovArt/clothespeg/nma_clothespeg09.jpg	1	3	1	nma_clothespeg09.jpg 	nonmovArt	4	clothespeg	8	clothespeg09	88	not_alive	0	still	0	artefact	0	n	0	0        	 	0.0	0	140.3006589	140.400649000017	0.0999901000177488
148221	100	233	stimuli/animals2/lemur/animal_lemur02.jpg        	1	3	1	animal_lemur02.jpg   	animals2 	1	lemur     	23	lemur02     	231	alive    	1	moves	1	natural 	1	n	0	0        	 	0.0	0	140.450679000001	140.550673599995	0.0999945999938063
148371	100	234	stimuli/plant2/lemontree/plant_lemontree07.jpg   	1	3	1	plant_lemontree07.jpg	plant2   	7	lemontree 	22	lemontree07 	226	alive    	1	still	0	natural 	1	n	0	0        	 	0.0	0	140.600666899991	140.700667100027	0.100000200036447
148521	100	235	stimuli/movArt/boat/ma_boat08.jpg                	1	3	1	ma_boat08.jpg        	movArt   	2	boat      	2	boat08      	27	not_alive	0	moves	1	artefact	0	n	0	0        	 	0.0	0	140.750668800029	140.850684100005	0.100015299976803
148671	100	236	stimuli/plant2/palmtree/plant_palmtree01.jpg     	1	3	1	plant_palmtree01.jpg 	plant2   	7	palmtree  	27	palmtree01  	270	alive    	1	still	0	natural 	1	n	0	0        	 	0.0	0	140.900670700008	141.000683300023	0.100012600014452
148821	100	237	stimuli/nonmovNat/sand/nmn_sand02.jpg            	1	3	1	nmn_sand02.jpg       	nonmovNat	5	sand      	31	sand02      	311	not_alive	0	still	0	natural 	1	n	0	0        	 	0.0	0	141.050688599993	141.150687900023	0.0999993000295944
148971	100	238	stimuli/animals/eagle/animal_eagle05.jpg         	1	3	1	animal_eagle05.jpg   	animals  	0	eagle     	13	eagle05     	134	alive    	1	moves	1	natural 	1	n	0	0        	 	0.0	0	141.200693199993	141.300698200008	0.100005000014789
149121	100	239	stimuli/nonmovArt/mug/nma_mug03.jpg              	1	3	1	nma_mug03.jpg        	nonmovArt	4	mug       	26	mug03       	262	not_alive	0	still	0	artefact	0	n	0	0        	 	0.0	0	141.350684400008	141.450681800023	0.0999974000151269
152904	100	240	stimuli/nonmovNat/rock/nmn_rock05.jpg            	1	4	1	nmn_rock05.jpg       	nonmovNat	5	rock      	30	rock05      	304	not_alive	0	still	0	natural 	1	n	0	0        	 	0.0	0	145.134114100016	145.234111800033	0.0999977000174113
153054	100	241	stimuli/nonmovArt/bench/nma_bench07.jpg          	1	4	1	nma_bench07.jpg      	nonmovArt	4	bench     	1	bench07     	16	not_alive	0	still	0	artefact	0	n	0	0        	 	0.0	0	145.284120900033	145.384124899982	0.100003999948967
153204	100	242	stimuli/movNat/river/mn_river08.jpg              	1	4	1	mn_river08.jpg       	movNat   	3	river     	29	river08     	297	not_alive	0	moves	1	natural 	1	n	0	0        	 	0.0	0	145.434119799989	145.534129799984	0.100009999994654
153354	100	243	stimuli/nonmovNat/shell/nmn_shell09.jpg          	1	4	1	nmn_shell09.jpg      	nonmovNat	5	shell     	32	shell09     	328	not_alive	0	still	0	natural 	1	n	0	0        	 	0.0	0	145.584123100038	145.684115700016	0.0999925999785774
153504	100	244	stimuli/animals2/pigeon/animal_pigeon06.jpg      	1	4	1	animal_pigeon06.jpg  	animals2 	1	pigeon    	28	pigeon06    	285	alive    	1	moves	1	natural 	1	n	0	0        	 	0.0	0	145.734157400031	145.834123799985	0.0999663999537006
153654	100	245	stimuli/nonmovArt/mug/nma_mug01.jpg              	1	4	1	nma_mug01.jpg        	nonmovArt	4	mug       	26	mug01       	260	not_alive	0	still	0	artefact	0	n	0	0        	 	0.0	0	145.884131100029	145.984126400028	0.0999952999991365
153804	100	246	stimuli/animals2/pigeon/animal_pigeon01.jpg      	1	4	1	animal_pigeon01.jpg  	animals2 	1	pigeon    	28	pigeon01    	280	alive    	1	moves	1	natural 	1	n	0	0        	 	0.0	0	146.034135500027	146.134123500029	0.0999880000017583
153954	100	247	stimuli/plant/vine/plant_vine09.jpg              	1	4	1	plant_vine09.jpg     	plant    	6	vine      	36	vine09      	368	alive    	1	still	0	natural 	1	n	0	0        	 	0.0	0	146.184149499983	146.284128800035	0.0999793000519276
154104	100	248	stimuli/nonmovArt/lock/nma_lock05.jpg            	1	4	1	nma_lock05.jpg       	nonmovArt	4	lock      	24	lock05      	244	not_alive	0	still	0	artefact	0	n	0	0        	 	0.0	0	146.334154699987	146.434129500005	0.0999748000176624
154254	100	249	stimuli/plant2/fern/plant_fern01.jpg             	1	4	1	plant_fern01.jpg     	plant2   	7	fern      	14	fern01      	140	alive    	1	still	0	natural 	1	n	0	0        	 	0.0	0	146.484161100001	146.584134300007	0.0999732000054792
154404	100	250	stimuli/plant2/lemontree/plant_lemontree07.jpg   	1	4	1	plant_lemontree07.jpg	plant2   	7	lemontree 	22	lemontree07 	226	alive    	1	still	0	natural 	1	n	0	0        	 	0.0	0	146.634145600023	146.73415199999	0.100006399967242
154554	100	251	stimuli/nonmovNat/shell/nmn_shell07.jpg          	1	4	1	nmn_shell07.jpg      	nonmovNat	5	shell     	32	shell07     	326	not_alive	0	still	0	natural 	1	n	0	0        	 	0.0	0	146.784149300016	146.884143500007	0.0999941999907605
154704	100	252	stimuli/plant/cactus/plant_cactus04.jpg          	1	4	1	plant_cactus04.jpg   	plant    	6	cactus    	4	cactus04    	43	alive    	1	still	0	natural 	1	n	0	0        	 	0.0	0	146.934155400028	147.034154299996	0.099998899968341
154854	100	253	stimuli/movNat/fire/mn_fire06.jpg                	1	4	1	mn_fire06.jpg        	movNat   	3	fire      	15	fire06      	155	not_alive	0	moves	1	natural 	1	n	0	0        	 	0.0	0	147.084174400021	147.184150699992	0.0999762999708764
155004	100	254	stimuli/movNat/fire/mn_fire02.jpg                	1	4	1	mn_fire02.jpg        	movNat   	3	fire      	15	fire02      	151	not_alive	0	moves	1	natural 	1	n	0	0        	 	0.0	0	147.234167399991	147.334156500001	0.0999891000101343
155154	100	255	stimuli/plant2/moss/plant_moss08.jpg             	1	4	1	plant_moss08.jpg     	plant2   	7	moss      	25	moss08      	257	alive    	1	still	0	natural 	1	n	0	0        	 	0.0	0	147.38416820002	147.484160199994	0.0999919999740086
155304	100	256	stimuli/animals/horse/animal_horse08.jpg         	1	4	1	animal_horse08.jpg   	animals  	0	horse     	20	horse08     	207	alive    	1	moves	1	natural 	1	n	0	0        	 	0.0	0	147.534189000027	147.634164699994	0.0999756999663077
155454	100	257	stimuli/animals/cat/animal_cat06.jpg             	1	4	1	animal_cat06.jpg     	animals  	0	cat       	6	cat06       	65	alive    	1	moves	1	natural 	1	n	0	0        	 	0.0	0	147.684175200004	147.784167300037	0.0999921000329778
155604	100	258	stimuli/animals/horse/animal_horse01.jpg         	1	4	1	animal_horse01.jpg   	animals  	0	horse     	20	horse01     	200	alive    	1	moves	1	natural 	1	n	0	0        	 	0.0	0	147.834178799996	147.934171500034	0.0999927000375465
155754	100	259	stimuli/nonmovArt/mug/nma_mug02.jpg              	1	4	1	nma_mug02.jpg        	nonmovArt	4	mug       	26	mug02       	261	not_alive	0	still	0	artefact	0	n	0	0        	 	0.0	0	147.984180900035	148.084176100034	0.099995199998375
155904	100	260	stimuli/nonmovNat/crystal/nmn_crystal03.jpg      	1	4	1	nmn_crystal03.jpg    	nonmovNat	5	crystal   	10	crystal03   	102	not_alive	0	still	0	natural 	1	n	0	0        	 	0.0	0	148.134185200033	148.234179700026	0.0999944999930449
156054	100	261	stimuli/plant/tree/plant_tree08.jpg              	1	4	1	plant_tree08.jpg     	plant    	6	tree      	35	tree08      	357	alive    	1	still	0	natural 	1	n	0	0        	 	0.0	0	148.284188700025	148.384182000009	0.0999932999839075
156204	100	262	stimuli/movNat/hotspring/mn_hotspring04.jpg      	1	4	1	mn_hotspring04.jpg   	movNat   	3	hotspring 	21	hotspring04 	213	not_alive	0	moves	1	natural 	1	n	0	0        	 	0.0	0	148.434194300033	148.534185800003	0.0999914999702014
156354	100	263	stimuli/animals2/whale/animal_whale02.jpg        	1	4	1	animal_whale02.jpg   	animals2 	1	whale     	39	whale02     	391	alive    	1	moves	1	natural 	1	n	0	0        	 	0.0	0	148.584196700016	148.684202799981	0.100006099964958
156504	100	264	stimuli/movNat/river/mn_river06.jpg              	1	4	1	mn_river06.jpg       	movNat   	3	river     	29	river06     	295	not_alive	0	moves	1	natural 	1	n	0	0        	 	0.0	0	148.734201500018	148.834192499984	0.0999909999663942
156654	100	265	stimuli/movArt/car/ma_car07.jpg                  	1	4	1	ma_car07.jpg         	movArt   	2	car       	5	car07       	56	not_alive	0	moves	1	artefact	0	n	0	0        	 	0.0	0	148.884205600014	148.984198599996	0.0999929999816231
156804	100	266	stimuli/animals2/bee/animal_bee10.jpg            	1	4	1	animal_bee10.jpg     	animals2 	1	bee       	0	bee10       	9	alive    	1	moves	1	natural 	1	n	0	0        	 	0.0	0	149.034215699998	149.134204200003	0.0999885000055656
156954	100	267	stimuli/movArt/car/ma_car05.jpg                  	1	4	1	ma_car05.jpg         	movArt   	2	car       	5	car05       	54	not_alive	0	moves	1	artefact	0	n	0	0        	 	0.0	0	149.184213900007	149.284208500001	0.0999945999938063
157104	100	268	stimuli/plant/tree/plant_tree02.jpg              	1	4	1	plant_tree02.jpg     	plant    	6	tree      	35	tree02      	351	alive    	1	still	0	natural 	1	n	0	0        	 	0.0	0	149.3342175	149.434240400034	0.100022900034674
157254	100	269	stimuli/movNat/waterfall/mn_waterfall06.jpg      	1	4	1	mn_waterfall06.jpg   	movNat   	3	waterfall 	37	waterfall06 	375	not_alive	0	moves	1	natural 	1	n	0	0        	 	0.0	0	149.484219500038	149.584215199982	0.0999956999439746
157404	100	270	stimuli/plant2/fern/plant_fern05.jpg             	1	4	1	plant_fern05.jpg     	plant2   	7	fern      	14	fern05      	144	alive    	1	still	0	natural 	1	n	0	0        	 	0.0	0	149.634224899986	149.734219799982	0.0999948999960907
157554	100	271	stimuli/animals/dog/animal_dog08.jpg             	1	4	1	animal_dog08.jpg     	animals  	0	dog       	11	dog08       	117	alive    	1	moves	1	natural 	1	n	0	0        	 	0.0	0	149.784229599987	149.884223300032	0.099993700045161
157704	100	272	stimuli/nonmovNat/sand/nmn_sand10.jpg            	1	4	1	nmn_sand10.jpg       	nonmovNat	5	sand      	31	sand10      	319	not_alive	0	still	0	natural 	1	n	0	0        	 	0.0	0	149.934234699991	150.034251500037	0.100016800046433
157854	100	273	stimuli/animals2/lemur/animal_lemur04.jpg        	1	4	1	animal_lemur04.jpg   	animals2 	1	lemur     	23	lemur04     	233	alive    	1	moves	1	natural 	1	n	1	0        	 	0.0	0	150.084254099987	150.1842588	0.100004700012505
158004	100	274	stimuli/movNat/waterfall/mn_waterfall07.jpg      	1	4	1	mn_waterfall07.jpg   	movNat   	3	waterfall 	37	waterfall07 	376	not_alive	0	moves	1	natural 	1	n	0	0        	 	0.0	0	150.234242999984	150.334236200026	0.0999932000413537
158154	100	275	stimuli/movNat/hotspring/mn_hotspring01.jpg      	1	4	1	mn_hotspring01.jpg   	movNat   	3	hotspring 	21	hotspring01 	210	not_alive	0	moves	1	natural 	1	n	0	1        	f	0.292107200017199	1	150.384248199989	150.484242400038	0.0999942000489682
158305	100	276	stimuli/movArt/boat/ma_boat06.jpg                	1	4	1	ma_boat06.jpg        	movArt   	2	boat      	2	boat06      	25	not_alive	0	moves	1	artefact	0	n	0	0        	 	0.0	0	150.534265700029	150.634242900007	0.0999771999777295
158454	100	277	stimuli/plant/vine/plant_vine04.jpg              	1	4	1	plant_vine04.jpg     	plant    	6	vine      	36	vine04      	363	alive    	1	still	0	natural 	1	n	0	0        	 	0.0	0	150.684252800012	150.784259999986	0.100007199973334
158604	100	278	stimuli/animals/horse/animal_horse07.jpg         	1	4	1	animal_horse07.jpg   	animals  	0	horse     	20	horse07     	206	alive    	1	moves	1	natural 	1	n	0	0        	 	0.0	0	150.834257800016	150.934279899986	0.100022099970374
158755	100	279	stimuli/animals/cat/animal_cat01.jpg             	1	4	1	animal_cat01.jpg     	animals  	0	cat       	6	cat01       	60	alive    	1	moves	1	natural 	1	n	0	0        	 	0.0	0	150.984264200029	151.084257600014	0.0999933999846689
158904	100	280	stimuli/animals2/lemur/animal_lemur04.jpg        	1	4	1	animal_lemur04.jpg   	animals2 	1	lemur     	23	lemur04     	233	alive    	1	moves	1	natural 	1	n	0	0        	 	0.0	0	151.134266100009	151.234258099983	0.0999919999740086
159055	100	281	stimuli/nonmovArt/lock/nma_lock10.jpg            	1	4	1	nma_lock10.jpg       	nonmovArt	4	lock      	24	lock10      	249	not_alive	0	still	0	artefact	0	n	0	0        	 	0.0	0	151.284302600019	151.384265100001	0.0999624999822117
159205	100	282	stimuli/movArt/helicopter/ma_helicopter08.jpg    	1	4	1	ma_helicopter08.jpg  	movArt   	2	helicopter	19	helicopter08	197	not_alive	0	moves	1	artefact	0	n	0	0        	 	0.0	0	151.43427279999	151.534267899988	0.0999950999976136
159355	100	283	stimuli/plant/grass/plant_grass02.jpg            	1	4	1	plant_grass02.jpg    	plant    	6	grass     	17	grass02     	171	alive    	1	still	0	natural 	1	n	0	0        	 	0.0	0	151.584277199989	151.684272499988	0.0999952999991365
159505	100	284	stimuli/animals2/tiger/animal_tiger09.jpg        	1	4	1	animal_tiger09.jpg   	animals2 	1	tiger     	33	tiger09     	338	alive    	1	moves	1	natural 	1	n	0	0        	 	0.0	0	151.734284700011	151.834273400018	0.0999887000070885
159655	100	285	stimuli/plant/cactus/plant_cactus05.jpg          	1	4	1	plant_cactus05.jpg   	plant    	6	cactus    	4	cactus05    	44	alive    	1	still	0	natural 	1	n	0	0        	 	0.0	0	151.884300300037	151.98427820002	0.0999778999830596
159805	100	286	stimuli/plant2/clover/plant_clover09.jpg         	1	4	1	plant_clover09.jpg   	plant2   	7	clover    	9	clover09    	98	alive    	1	still	0	natural 	1	n	0	0        	 	0.0	0	152.034323300002	152.134282600018	0.099959300016053
159955	100	287	stimuli/animals2/tiger/animal_tiger09.jpg        	1	4	1	animal_tiger09.jpg   	animals2 	1	tiger     	33	tiger09     	338	alive    	1	moves	1	natural 	1	n	1	0        	 	0.0	0	152.184311199991	152.284299099992	0.0999879000009969
160105	100	288	stimuli/nonmovArt/clothespeg/nma_clothespeg06.jpg	1	4	1	nma_clothespeg06.jpg 	nonmovArt	4	clothespeg	8	clothespeg06	85	not_alive	0	still	0	artefact	0	n	0	0        	 	0.0	0	152.334297500027	152.434302899987	0.100005399959628
160255	100	289	stimuli/nonmovNat/sand/nmn_sand05.jpg            	1	4	1	nmn_sand05.jpg       	nonmovNat	5	sand      	31	sand05      	314	not_alive	0	still	0	natural 	1	n	0	1        	f	0.391982900036965	1	152.484301700024	152.584295800014	0.0999940999899991
160405	100	290	stimuli/nonmovArt/mug/nma_mug08.jpg              	1	4	1	nma_mug08.jpg        	nonmovArt	4	mug       	26	mug08       	267	not_alive	0	still	0	artefact	0	n	0	0        	 	0.0	0	152.634312400012	152.734299800009	0.0999873999971896
160555	100	291	stimuli/movNat/fire/mn_fire02.jpg                	1	4	1	mn_fire02.jpg        	movNat   	3	fire      	15	fire02      	151	not_alive	0	moves	1	natural 	1	n	0	0        	 	0.0	0	152.784321999992	152.88430710003	0.099985100037884
160705	100	292	stimuli/movArt/train/ma_train03.jpg              	1	4	1	ma_train03.jpg       	movArt   	2	train     	34	train03     	342	not_alive	0	moves	1	artefact	0	n	0	0        	 	0.0	0	152.934314500017	153.034314199991	0.0999996999744326
160855	100	293	stimuli/nonmovNat/rock/nmn_rock08.jpg            	1	4	1	nmn_rock08.jpg       	nonmovNat	5	rock      	30	rock08      	307	not_alive	0	still	0	natural 	1	n	0	0        	 	0.0	0	153.084317200002	153.184311199991	0.0999939999892376
161005	100	294	stimuli/plant2/palmtree/plant_palmtree05.jpg     	1	4	1	plant_palmtree05.jpg 	plant2   	7	palmtree  	27	palmtree05  	274	alive    	1	still	0	natural 	1	n	0	0        	 	0.0	0	153.234322000004	153.334316799999	0.0999947999953292
161155	100	295	stimuli/nonmovNat/cliff/nmn_cliff10.jpg          	1	4	1	nmn_cliff10.jpg      	nonmovNat	5	cliff     	7	cliff10     	79	not_alive	0	still	0	natural 	1	n	0	0        	 	0.0	0	153.384327600012	153.484341899981	0.100014299969189
161305	100	296	stimuli/plant2/clover/plant_clover09.jpg         	1	4	1	plant_clover09.jpg   	plant2   	7	clover    	9	clover09    	98	alive    	1	still	0	natural 	1	n	0	0        	 	0.0	0	153.534328299982	153.634321800026	0.099993500043638
161455	100	297	stimuli/animals/dolphin/animal_dolphin01.jpg     	1	4	1	animal_dolphin01.jpg 	animals  	0	dolphin   	12	dolphin01   	120	alive    	1	moves	1	natural 	1	n	0	0        	 	0.0	0	153.684332999983	153.784326700028	0.099993700045161
161605	100	298	stimuli/plant2/lemontree/plant_lemontree03.jpg   	1	4	1	plant_lemontree03.jpg	plant2   	7	lemontree 	22	lemontree03 	222	alive    	1	still	0	natural 	1	n	0	0        	 	0.0	0	153.834337699984	153.934332799981	0.0999950999976136
161755	100	299	stimuli/plant/flower/plant_flower10.jpg          	1	4	1	plant_flower10.jpg   	plant    	6	flower    	16	flower10    	169	alive    	1	still	0	natural 	1	n	0	0        	 	0.0	0	153.984343299991	154.084335300024	0.0999920000322163
161905	100	300	stimuli/animals/eagle/animal_eagle03.jpg         	1	4	1	animal_eagle03.jpg   	animals  	0	eagle     	13	eagle03     	132	alive    	1	moves	1	natural 	1	n	0	0        	 	0.0	0	154.134345600032	154.234337900009	0.099992299976293
162055	100	301	stimuli/nonmovNat/shell/nmn_shell10.jpg          	1	4	1	nmn_shell10.jpg      	nonmovNat	5	shell     	32	shell10     	329	not_alive	0	still	0	natural 	1	n	0	0        	 	0.0	0	154.284348900022	154.384343500016	0.0999945999938063
162205	100	302	stimuli/animals/dog/animal_dog03.jpg             	1	4	1	animal_dog03.jpg     	animals  	0	dog       	11	dog03       	112	alive    	1	moves	1	natural 	1	n	0	0        	 	0.0	0	154.434352400014	154.534346500004	0.0999940999899991
162355	100	303	stimuli/animals/dolphin/animal_dolphin10.jpg     	1	4	1	animal_dolphin10.jpg 	animals  	0	dolphin   	12	dolphin10   	129	alive    	1	moves	1	natural 	1	n	0	0        	 	0.0	0	154.584355700004	154.684349599993	0.0999938999884762
162505	100	304	stimuli/movNat/waves/mn_waves08.jpg              	1	4	1	mn_waves08.jpg       	movNat   	3	waves     	38	waves08     	387	not_alive	0	moves	1	natural 	1	n	0	0        	 	0.0	0	154.734361900017	154.834354799998	0.0999928999808617
162655	100	305	stimuli/animals2/pigeon/animal_pigeon08.jpg      	1	4	1	animal_pigeon08.jpg  	animals2 	1	pigeon    	28	pigeon08    	287	alive    	1	moves	1	natural 	1	n	0	0        	 	0.0	0	154.884367400024	154.984398	0.10003059997689
162805	100	306	stimuli/animals/dog/animal_dog02.jpg             	1	4	1	animal_dog02.jpg     	animals  	0	dog       	11	dog02       	111	alive    	1	moves	1	natural 	1	n	0	0        	 	0.0	0	155.0343765	155.134362799989	0.0999862999888137
162955	100	307	stimuli/nonmovNat/cliff/nmn_cliff04.jpg          	1	4	1	nmn_cliff04.jpg      	nonmovNat	5	cliff     	7	cliff04     	73	not_alive	0	still	0	natural 	1	n	0	0        	 	0.0	0	155.184372799995	155.284382299986	0.100009499990847
163105	100	308	stimuli/movNat/hotspring/mn_hotspring03.jpg      	1	4	1	mn_hotspring03.jpg   	movNat   	3	hotspring 	21	hotspring03 	212	not_alive	0	moves	1	natural 	1	n	0	0        	 	0.0	0	155.334376399987	155.434370300034	0.0999939000466838
163255	100	309	stimuli/nonmovArt/bench/nma_bench01.jpg          	1	4	1	nma_bench01.jpg      	nonmovArt	4	bench     	1	bench01     	10	not_alive	0	still	0	artefact	0	n	0	0        	 	0.0	0	155.484379400034	155.584374700033	0.0999952999991365
163405	100	310	stimuli/movNat/waves/mn_waves04.jpg              	1	4	1	mn_waves04.jpg       	movNat   	3	waves     	38	waves04     	383	not_alive	0	moves	1	natural 	1	n	0	0        	 	0.0	0	155.634400099982	155.734407800017	0.100007700035349
163555	100	311	stimuli/animals/cat/animal_cat09.jpg             	1	4	1	animal_cat09.jpg     	animals  	0	cat       	6	cat09       	68	alive    	1	moves	1	natural 	1	n	0	0        	 	0.0	0	155.784387500025	155.884382300021	0.0999947999953292
163705	100	312	stimuli/nonmovNat/crystal/nmn_crystal01.jpg      	1	4	1	nmn_crystal01.jpg    	nonmovNat	5	crystal   	10	crystal01   	100	not_alive	0	still	0	natural 	1	n	0	0        	 	0.0	0	155.934392300027	156.034389799985	0.0999974999576807
163855	100	313	stimuli/plant2/palmtree/plant_palmtree02.jpg     	1	4	1	plant_palmtree02.jpg 	plant2   	7	palmtree  	27	palmtree02  	271	alive    	1	still	0	natural 	1	n	0	0        	 	0.0	0	156.084396400023	156.184389700007	0.0999932999839075
164005	100	314	stimuli/nonmovNat/rock/nmn_rock07.jpg            	1	4	1	nmn_rock07.jpg       	nonmovNat	5	rock      	30	rock07      	306	not_alive	0	still	0	natural 	1	n	0	0        	 	0.0	0	156.23440190003	156.33441260003	0.100010699999984
164155	100	315	stimuli/nonmovArt/headphones/nma_headphones06.jpg	1	4	1	nma_headphones06.jpg 	nonmovArt	4	headphones	18	headphones06	185	not_alive	0	still	0	artefact	0	n	0	0        	 	0.0	0	156.384404600016	156.484412299993	0.100007699977141
164305	100	316	stimuli/nonmovArt/headphones/nma_headphones09.jpg	1	4	1	nma_headphones09.jpg 	nonmovArt	4	headphones	18	headphones09	188	not_alive	0	still	0	artefact	0	n	0	0        	 	0.0	0	156.534408700012	156.634402800002	0.0999940999899991
164455	100	317	stimuli/plant2/lemontree/plant_lemontree09.jpg   	1	4	1	plant_lemontree09.jpg	plant2   	7	lemontree 	22	lemontree09 	228	alive    	1	still	0	natural 	1	n	0	0        	 	0.0	0	156.684412900009	156.784406599996	0.0999936999869533
164605	100	318	stimuli/animals2/bee/animal_bee06.jpg            	1	4	1	animal_bee06.jpg     	animals2 	1	bee       	0	bee06       	5	alive    	1	moves	1	natural 	1	n	0	0        	 	0.0	0	156.834438699996	156.934411800001	0.0999731000047177
164755	100	319	stimuli/animals/eagle/animal_eagle07.jpg         	1	4	1	animal_eagle07.jpg   	animals  	0	eagle     	13	eagle07     	136	alive    	1	moves	1	natural 	1	n	0	0        	 	0.0	0	156.984422100009	157.084419200022	0.0999971000128426
168221	100	320	stimuli/animals2/whale/animal_whale01.jpg        	1	5	1	animal_whale01.jpg   	animals2 	1	whale     	39	whale01     	390	alive    	1	moves	1	natural 	1	n	0	0        	 	0.0	0	160.451192400011	160.551191899984	0.0999994999729097
168371	100	321	stimuli/plant2/fern/plant_fern08.jpg             	1	5	1	plant_fern08.jpg     	plant2   	7	fern      	14	fern08      	147	alive    	1	still	0	natural 	1	n	0	0        	 	0.0	0	160.601189700013	160.701183800004	0.0999940999899991
168521	100	322	stimuli/plant2/moss/plant_moss01.jpg             	1	5	1	plant_moss01.jpg     	plant2   	7	moss      	25	moss01      	250	alive    	1	still	0	natural 	1	n	0	0        	 	0.0	0	160.751192399999	160.851187499997	0.0999950999976136
168671	100	323	stimuli/movArt/train/ma_train10.jpg              	1	5	1	ma_train10.jpg       	movArt   	2	train     	34	train10     	349	not_alive	0	moves	1	artefact	0	n	0	0        	 	0.0	0	160.901197200001	161.001193700009	0.0999965000082739
168821	100	324	stimuli/movArt/bus/ma_bus06.jpg                  	1	5	1	ma_bus06.jpg         	movArt   	2	bus       	3	bus06       	35	not_alive	0	moves	1	artefact	0	n	0	0        	 	0.0	0	161.051203300012	161.15119340003	0.0999901000177488
168971	100	325	stimuli/plant/tree/plant_tree02.jpg              	1	5	1	plant_tree02.jpg     	plant    	6	tree      	35	tree02      	351	alive    	1	still	0	natural 	1	n	0	0        	 	0.0	0	161.201205299993	161.301214599982	0.100009299989324
169121	100	326	stimuli/nonmovArt/lock/nma_lock03.jpg            	1	5	1	nma_lock03.jpg       	nonmovArt	4	lock      	24	lock03      	242	not_alive	0	still	0	artefact	0	n	0	0        	 	0.0	0	161.351212900016	161.451203400036	0.0999905000207946
169271	100	327	stimuli/animals/eagle/animal_eagle10.jpg         	1	5	1	animal_eagle10.jpg   	animals  	0	eagle     	13	eagle10     	139	alive    	1	moves	1	natural 	1	n	0	0        	 	0.0	0	161.501221499988	161.601218900003	0.0999974000151269
169421	100	328	stimuli/movArt/bus/ma_bus02.jpg                  	1	5	1	ma_bus02.jpg         	movArt   	2	bus       	3	bus02       	31	not_alive	0	moves	1	artefact	0	n	0	0        	 	0.0	0	161.651221800013	161.751212100033	0.0999903000192717
169571	100	329	stimuli/movArt/boat/ma_boat01.jpg                	1	5	1	ma_boat01.jpg        	movArt   	2	boat      	2	boat01      	20	not_alive	0	moves	1	artefact	0	n	0	0        	 	0.0	0	161.801221000031	161.901215800026	0.0999947999953292
169721	100	330	stimuli/nonmovArt/headphones/nma_headphones08.jpg	1	5	1	nma_headphones08.jpg 	nonmovArt	4	headphones	18	headphones08	187	not_alive	0	still	0	artefact	0	n	0	0        	 	0.0	0	161.951227499987	162.051233700011	0.100006200023927
169871	100	331	stimuli/animals2/lemur/animal_lemur07.jpg        	1	5	1	animal_lemur07.jpg   	animals2 	1	lemur     	23	lemur07     	236	alive    	1	moves	1	natural 	1	n	0	0        	 	0.0	0	162.101230000029	162.201224700024	0.0999946999945678
170021	100	332	stimuli/movNat/river/mn_river03.jpg              	1	5	1	mn_river03.jpg       	movNat   	3	river     	29	river03     	292	not_alive	0	moves	1	natural 	1	n	1	0        	 	0.0	0	162.251235999982	162.35122880002	0.0999928000383079
170171	100	333	stimuli/animals2/tiger/animal_tiger06.jpg        	1	5	1	animal_tiger06.jpg   	animals2 	1	tiger     	33	tiger06     	335	alive    	1	moves	1	natural 	1	n	0	0        	 	0.0	0	162.401236700011	162.501230900001	0.0999941999907605
170321	100	334	stimuli/animals2/whale/animal_whale05.jpg        	1	5	1	animal_whale05.jpg   	animals2 	1	whale     	39	whale05     	394	alive    	1	moves	1	natural 	1	n	0	1        	f	0.292128400004003	1	162.551243000024	162.651235500001	0.0999924999778159
170471	100	335	stimuli/animals2/bee/animal_bee09.jpg            	1	5	1	animal_bee09.jpg     	animals2 	1	bee       	0	bee09       	8	alive    	1	moves	1	natural 	1	n	0	0        	 	0.0	0	162.70124850003	162.80124120001	0.0999926999793388
170621	100	336	stimuli/plant/grass/plant_grass07.jpg            	1	5	1	plant_grass07.jpg    	plant    	6	grass     	17	grass07     	176	alive    	1	still	0	natural 	1	n	0	0        	 	0.0	0	162.851249400002	162.95124319999	0.0999937999877147
170771	100	337	stimuli/movArt/helicopter/ma_helicopter10.jpg    	1	5	1	ma_helicopter10.jpg  	movArt   	2	helicopter	19	helicopter10	199	not_alive	0	moves	1	artefact	0	n	0	0        	 	0.0	0	163.001253599999	163.101247399987	0.0999937999877147
170921	100	338	stimuli/movArt/car/ma_car08.jpg                  	1	5	1	ma_car08.jpg         	movArt   	2	car       	5	car08       	57	not_alive	0	moves	1	artefact	0	n	0	0        	 	0.0	0	163.151256799989	163.251251100039	0.0999943000497296
171071	100	339	stimuli/nonmovArt/clothespeg/nma_clothespeg03.jpg	1	5	1	nma_clothespeg03.jpg 	nonmovArt	4	clothespeg	8	clothespeg03	82	not_alive	0	still	0	artefact	0	n	0	0        	 	0.0	0	163.30126149999	163.40125689999	0.0999953999998979
171221	100	340	stimuli/nonmovNat/crystal/nmn_crystal06.jpg      	1	5	1	nmn_crystal06.jpg    	nonmovNat	5	crystal   	10	crystal06   	105	not_alive	0	still	0	natural 	1	n	0	0        	 	0.0	0	163.451267299999	163.551259700034	0.0999924000352621
171371	100	341	stimuli/plant/flower/plant_flower10.jpg          	1	5	1	plant_flower10.jpg   	plant    	6	flower    	16	flower10    	169	alive    	1	still	0	natural 	1	n	0	0        	 	0.0	0	163.601270999992	163.701265699987	0.0999946999945678
171521	100	342	stimuli/movNat/waves/mn_waves02.jpg              	1	5	1	mn_waves02.jpg       	movNat   	3	waves     	38	waves02     	381	not_alive	0	moves	1	natural 	1	n	0	0        	 	0.0	0	163.751273700036	163.85128360003	0.100009899993893
171671	100	343	stimuli/animals/dolphin/animal_dolphin10.jpg     	1	5	1	animal_dolphin10.jpg 	animals  	0	dolphin   	12	dolphin10   	129	alive    	1	moves	1	natural 	1	n	0	0        	 	0.0	0	163.901278000034	164.001269600005	0.0999915999709628
171821	100	344	stimuli/nonmovArt/clothespeg/nma_clothespeg07.jpg	1	5	1	nma_clothespeg07.jpg 	nonmovArt	4	clothespeg	8	clothespeg07	86	not_alive	0	still	0	artefact	0	n	0	0        	 	0.0	0	164.051281500026	164.151273700001	0.0999921999755316
171971	100	345	stimuli/plant2/palmtree/plant_palmtree01.jpg     	1	5	1	plant_palmtree01.jpg 	plant2   	7	palmtree  	27	palmtree01  	270	alive    	1	still	0	natural 	1	n	0	0        	 	0.0	0	164.201286900032	164.301281200023	0.099994299991522
172121	100	346	stimuli/movArt/boat/ma_boat03.jpg                	1	5	1	ma_boat03.jpg        	movArt   	2	boat      	2	boat03      	22	not_alive	0	moves	1	artefact	0	n	0	0        	 	0.0	0	164.351293799991	164.45128400001	0.0999902000185102
172271	100	347	stimuli/plant/grass/plant_grass09.jpg            	1	5	1	plant_grass09.jpg    	plant    	6	grass     	17	grass09     	178	alive    	1	still	0	natural 	1	n	0	0        	 	0.0	0	164.501293400011	164.601287099998	0.0999936999869533
172421	100	348	stimuli/plant2/moss/plant_moss03.jpg             	1	5	1	plant_moss03.jpg     	plant2   	7	moss      	25	moss03      	252	alive    	1	still	0	natural 	1	n	0	0        	 	0.0	0	164.651297100005	164.751289899985	0.0999927999801002
172571	100	349	stimuli/movArt/train/ma_train09.jpg              	1	5	1	ma_train09.jpg       	movArt   	2	train     	34	train09     	348	not_alive	0	moves	1	artefact	0	n	0	0        	 	0.0	0	164.801300299994	164.901295099989	0.0999947999953292
172722	100	350	stimuli/movArt/helicopter/ma_helicopter01.jpg    	1	5	1	ma_helicopter01.jpg  	movArt   	2	helicopter	19	helicopter01	190	not_alive	0	moves	1	artefact	0	n	0	0        	 	0.0	0	164.9513056	165.051298799983	0.099993199983146
172872	100	351	stimuli/plant/flower/plant_flower05.jpg          	1	5	1	plant_flower05.jpg   	plant    	6	flower    	16	flower05    	164	alive    	1	still	0	natural 	1	n	0	0        	 	0.0	0	165.101309799997	165.2013057	0.0999959000037052
173022	100	352	stimuli/movNat/waterfall/mn_waterfall09.jpg      	1	5	1	mn_waterfall09.jpg   	movNat   	3	waterfall 	37	waterfall09 	378	not_alive	0	moves	1	natural 	1	n	0	0        	 	0.0	0	165.251313099987	165.351308199984	0.0999950999976136
173172	100	353	stimuli/movArt/bus/ma_bus10.jpg                  	1	5	1	ma_bus10.jpg         	movArt   	2	bus       	3	bus10       	39	not_alive	0	moves	1	artefact	0	n	1	0        	 	0.0	0	165.40131809999	165.501311400032	0.0999933000421152
173322	100	354	stimuli/plant2/clover/plant_clover09.jpg         	1	5	1	plant_clover09.jpg   	plant2   	7	clover    	9	clover09    	98	alive    	1	still	0	natural 	1	n	0	0        	 	0.0	0	165.55132269999	165.651316800038	0.0999941000482068
173472	100	355	stimuli/nonmovArt/bench/nma_bench05.jpg          	1	5	1	nma_bench05.jpg      	nonmovArt	4	bench     	1	bench05     	14	not_alive	0	still	0	artefact	0	n	0	1        	f	0.392030899995007	1	165.701338600018	165.801320600032	0.099982000014279
173622	100	356	stimuli/plant/vine/plant_vine06.jpg              	1	5	1	plant_vine06.jpg     	plant    	6	vine      	36	vine06      	365	alive    	1	still	0	natural 	1	n	0	0        	 	0.0	0	165.851332099992	165.951325800037	0.099993700045161
173772	100	357	stimuli/nonmovNat/sand/nmn_sand01.jpg            	1	5	1	nmn_sand01.jpg       	nonmovNat	5	sand      	31	sand01      	310	not_alive	0	still	0	natural 	1	n	0	0        	 	0.0	0	166.001333600027	166.101326600008	0.0999929999816231
173922	100	358	stimuli/plant/cactus/plant_cactus10.jpg          	1	5	1	plant_cactus10.jpg   	plant    	6	cactus    	4	cactus10    	49	alive    	1	still	0	natural 	1	n	0	0        	 	0.0	0	166.151338100026	166.251332400017	0.099994299991522
174072	100	359	stimuli/nonmovNat/cliff/nmn_cliff03.jpg          	1	5	1	nmn_cliff03.jpg      	nonmovNat	5	cliff     	7	cliff03     	72	not_alive	0	still	0	natural 	1	n	0	0        	 	0.0	0	166.301342700026	166.401337500021	0.0999947999953292
174222	100	360	stimuli/movArt/boat/ma_boat07.jpg                	1	5	1	ma_boat07.jpg        	movArt   	2	boat      	2	boat07      	26	not_alive	0	moves	1	artefact	0	n	0	0        	 	0.0	0	166.451347100025	166.551339900005	0.0999927999801002
174372	100	361	stimuli/movArt/train/ma_train10.jpg              	1	5	1	ma_train10.jpg       	movArt   	2	train     	34	train10     	349	not_alive	0	moves	1	artefact	0	n	0	0        	 	0.0	0	166.601343900023	166.70133760001	0.0999936999869533
174522	100	362	stimuli/plant/cactus/plant_cactus02.jpg          	1	5	1	plant_cactus02.jpg   	plant    	6	cactus    	4	cactus02    	41	alive    	1	still	0	natural 	1	n	0	0        	 	0.0	0	166.751349600032	166.851341300004	0.0999916999717243
174672	100	363	stimuli/movNat/fire/mn_fire03.jpg                	1	5	1	mn_fire03.jpg        	movNat   	3	fire      	15	fire03      	152	not_alive	0	moves	1	natural 	1	n	0	0        	 	0.0	0	166.901351900015	167.001344599994	0.0999926999793388
174822	100	364	stimuli/movNat/river/mn_river06.jpg              	1	5	1	mn_river06.jpg       	movNat   	3	river     	29	river06     	295	not_alive	0	moves	1	natural 	1	n	0	0        	 	0.0	0	167.051353499992	167.151347599982	0.0999940999899991
174972	100	365	stimuli/plant2/fern/plant_fern02.jpg             	1	5	1	plant_fern02.jpg     	plant2   	7	fern      	14	fern02      	141	alive    	1	still	0	natural 	1	n	0	0        	 	0.0	0	167.201360400009	167.301355500007	0.0999950999976136
175122	100	366	stimuli/animals/eagle/animal_eagle02.jpg         	1	5	1	animal_eagle02.jpg   	animals  	0	eagle     	13	eagle02     	131	alive    	1	moves	1	natural 	1	n	1	0        	 	0.0	0	167.351365800016	167.451357299986	0.0999914999702014
175272	100	367	stimuli/nonmovNat/crystal/nmn_crystal03.jpg      	1	5	1	nmn_crystal03.jpg    	nonmovNat	5	crystal   	10	crystal03   	102	not_alive	0	still	0	natural 	1	n	0	0        	 	0.0	0	167.501369500009	167.601360200031	0.0999907000223175
175422	100	368	stimuli/nonmovArt/mug/nma_mug10.jpg              	1	5	1	nma_mug10.jpg        	nonmovArt	4	mug       	26	mug10       	269	not_alive	0	still	0	artefact	0	n	0	1        	f	0.292127399996389	1	167.651373600005	167.751364900032	0.0999913000268862
175572	100	369	stimuli/nonmovNat/sand/nmn_sand04.jpg            	1	5	1	nmn_sand04.jpg       	nonmovNat	5	sand      	31	sand04      	313	not_alive	0	still	0	natural 	1	n	0	0        	 	0.0	0	167.801375599985	167.901370100037	0.0999945000512525
175722	100	370	stimuli/plant2/clover/plant_clover04.jpg         	1	5	1	plant_clover04.jpg   	plant2   	7	clover    	9	clover04    	93	alive    	1	still	0	natural 	1	n	0	0        	 	0.0	0	167.951379400038	168.051373700029	0.099994299991522
175872	100	371	stimuli/movArt/car/ma_car04.jpg                  	1	5	1	ma_car04.jpg         	movArt   	2	car       	5	car04       	53	not_alive	0	moves	1	artefact	0	n	0	0        	 	0.0	0	168.101383500034	168.201377600024	0.0999940999899991
176022	100	372	stimuli/plant/vine/plant_vine08.jpg              	1	5	1	plant_vine08.jpg     	plant    	6	vine      	36	vine08      	367	alive    	1	still	0	natural 	1	n	0	0        	 	0.0	0	168.2514065	168.351382400026	0.0999759000260383
176172	100	373	stimuli/movNat/waterfall/mn_waterfall01.jpg      	1	5	1	mn_waterfall01.jpg   	movNat   	3	waterfall 	37	waterfall01 	370	not_alive	0	moves	1	natural 	1	n	0	0        	 	0.0	0	168.4014188	168.501385300013	0.0999665000126697
176322	100	374	stimuli/animals/horse/animal_horse08.jpg         	1	5	1	animal_horse08.jpg   	animals  	0	horse     	20	horse08     	207	alive    	1	moves	1	natural 	1	n	0	0        	 	0.0	0	168.551395500021	168.651389600011	0.0999940999899991
176472	100	375	stimuli/animals/cat/animal_cat02.jpg             	1	5	1	animal_cat02.jpg     	animals  	0	cat       	6	cat02       	61	alive    	1	moves	1	natural 	1	n	0	0        	 	0.0	0	168.701407500019	168.801411400025	0.100003900006413
176622	100	376	stimuli/animals2/whale/animal_whale01.jpg        	1	5	1	animal_whale01.jpg   	animals2 	1	whale     	39	whale01     	390	alive    	1	moves	1	natural 	1	n	0	0        	 	0.0	0	168.851407799986	168.951402200037	0.0999944000504911
176772	100	377	stimuli/nonmovNat/cliff/nmn_cliff06.jpg          	1	5	1	nmn_cliff06.jpg      	nonmovNat	5	cliff     	7	cliff06     	75	not_alive	0	still	0	natural 	1	n	0	0        	 	0.0	0	169.001413399994	169.101407000038	0.0999936000443995
176922	100	378	stimuli/plant2/lemontree/plant_lemontree05.jpg   	1	5	1	plant_lemontree05.jpg	plant2   	7	lemontree 	22	lemontree05 	224	alive    	1	still	0	natural 	1	n	0	0        	 	0.0	0	169.151419400005	169.251410800032	0.0999914000276476
177072	100	379	stimuli/plant/flower/plant_flower06.jpg          	1	5	1	plant_flower06.jpg   	plant    	6	flower    	16	flower06    	165	alive    	1	still	0	natural 	1	n	0	0        	 	0.0	0	169.301450600033	169.401410299994	0.0999596999608912
177222	100	380	stimuli/animals/dog/animal_dog09.jpg             	1	5	1	animal_dog09.jpg     	animals  	0	dog       	11	dog09       	118	alive    	1	moves	1	natural 	1	n	0	0        	 	0.0	0	169.451420199999	169.551413399982	0.099993199983146
177372	100	381	stimuli/animals/cat/animal_cat05.jpg             	1	5	1	animal_cat05.jpg     	animals  	0	cat       	6	cat05       	64	alive    	1	moves	1	natural 	1	n	0	0        	 	0.0	0	169.601421600033	169.701416800031	0.099995199998375
177522	100	382	stimuli/movNat/waterfall/mn_waterfall10.jpg      	1	5	1	mn_waterfall10.jpg   	movNat   	3	waterfall 	37	waterfall10 	379	not_alive	0	moves	1	natural 	1	n	0	0        	 	0.0	0	169.751426600036	169.851420200022	0.0999935999861918
177672	100	383	stimuli/animals/eagle/animal_eagle09.jpg         	1	5	1	animal_eagle09.jpg   	animals  	0	eagle     	13	eagle09     	138	alive    	1	moves	1	natural 	1	n	0	0        	 	0.0	0	169.901433299994	170.001440300024	0.100007000030018
177822	100	384	stimuli/nonmovArt/bench/nma_bench10.jpg          	1	5	1	nma_bench10.jpg      	nonmovArt	4	bench     	1	bench10     	19	not_alive	0	still	0	artefact	0	n	0	0        	 	0.0	0	170.051436399983	170.151426900004	0.0999905000207946
177972	100	385	stimuli/plant/tree/plant_tree04.jpg              	1	5	1	plant_tree04.jpg     	plant    	6	tree      	35	tree04      	353	alive    	1	still	0	natural 	1	n	0	0        	 	0.0	0	170.201461700024	170.301434200024	0.099972500000149
178122	100	386	stimuli/animals2/pigeon/animal_pigeon09.jpg      	1	5	1	animal_pigeon09.jpg  	animals2 	1	pigeon    	28	pigeon09    	288	alive    	1	moves	1	natural 	1	n	0	0        	 	0.0	0	170.351443700027	170.451438300021	0.0999945999938063
178272	100	387	stimuli/movArt/boat/ma_boat08.jpg                	1	5	1	ma_boat08.jpg        	movArt   	2	boat      	2	boat08      	27	not_alive	0	moves	1	artefact	0	n	0	0        	 	0.0	0	170.501447300019	170.601455700002	0.100008399982471
178422	100	388	stimuli/plant2/lemontree/plant_lemontree06.jpg   	1	5	1	plant_lemontree06.jpg	plant2   	7	lemontree 	22	lemontree06 	225	alive    	1	still	0	natural 	1	n	0	0        	 	0.0	0	170.651463699993	170.751444399997	0.0999807000043802
178572	100	389	stimuli/movArt/bus/ma_bus04.jpg                  	1	5	1	ma_bus04.jpg         	movArt   	2	bus       	3	bus04       	33	not_alive	0	moves	1	artefact	0	n	0	0        	 	0.0	0	170.801455700013	170.901450800011	0.0999950999976136
178722	100	390	stimuli/movNat/fire/mn_fire04.jpg                	1	5	1	mn_fire04.jpg        	movNat   	3	fire      	15	fire04      	153	not_alive	0	moves	1	natural 	1	n	0	0        	 	0.0	0	170.951459200005	171.051451399981	0.0999921999755316
178872	100	391	stimuli/movArt/helicopter/ma_helicopter09.jpg    	1	5	1	ma_helicopter09.jpg  	movArt   	2	helicopter	19	helicopter09	198	not_alive	0	moves	1	artefact	0	n	0	0        	 	0.0	0	171.101463800005	171.201456699986	0.0999928999808617
179022	100	392	stimuli/animals/eagle/animal_eagle07.jpg         	1	5	1	animal_eagle07.jpg   	animals  	0	eagle     	13	eagle07     	136	alive    	1	moves	1	natural 	1	n	0	0        	 	0.0	0	171.251470500021	171.351462899998	0.0999923999770544
179172	100	393	stimuli/animals/dolphin/animal_dolphin08.jpg     	1	5	1	animal_dolphin08.jpg 	animals  	0	dolphin   	12	dolphin08   	127	alive    	1	moves	1	natural 	1	n	0	0        	 	0.0	0	171.401470699988	171.501464500034	0.0999938000459224
179322	100	394	stimuli/nonmovArt/headphones/nma_headphones04.jpg	1	5	1	nma_headphones04.jpg 	nonmovArt	4	headphones	18	headphones04	183	not_alive	0	still	0	artefact	0	n	0	0        	 	0.0	0	171.551476399996	171.651468300028	0.0999919000314549
179472	100	395	stimuli/nonmovNat/sand/nmn_sand07.jpg            	1	5	1	nmn_sand07.jpg       	nonmovNat	5	sand      	31	sand07      	316	not_alive	0	still	0	natural 	1	n	0	0        	 	0.0	0	171.701480299991	171.801470800012	0.0999905000207946
179622	100	396	stimuli/nonmovNat/rock/nmn_rock03.jpg            	1	5	1	nmn_rock03.jpg       	nonmovNat	5	rock      	30	rock03      	302	not_alive	0	still	0	natural 	1	n	0	0        	 	0.0	0	171.851483899984	171.95147510001	0.0999912000261247
179772	100	397	stimuli/plant/grass/plant_grass04.jpg            	1	5	1	plant_grass04.jpg    	plant    	6	grass     	17	grass04     	173	alive    	1	still	0	natural 	1	n	0	0        	 	0.0	0	172.001487800037	172.101481700025	0.0999938999884762
179922	100	398	stimuli/nonmovArt/mug/nma_mug09.jpg              	1	5	1	nma_mug09.jpg        	nonmovArt	4	mug       	26	mug09       	268	not_alive	0	still	0	artefact	0	n	0	0        	 	0.0	0	172.151492300036	172.251487600035	0.0999952999991365
180072	100	399	stimuli/plant2/clover/plant_clover03.jpg         	1	5	1	plant_clover03.jpg   	plant2   	7	clover    	9	clover03    	92	alive    	1	still	0	natural 	1	n	0	0        	 	0.0	0	172.301494300016	172.401488600008	0.099994299991522
182988	100	400	stimuli/nonmovNat/cliff/nmn_cliff09.jpg          	1	6	1	nmn_cliff09.jpg      	nonmovNat	5	cliff     	7	cliff09     	78	not_alive	0	still	0	natural 	1	n	0	0        	 	0.0	0	175.218247800018	175.318238899985	0.0999910999671556
183138	100	401	stimuli/movNat/hotspring/mn_hotspring08.jpg      	1	6	1	mn_hotspring08.jpg   	movNat   	3	hotspring 	21	hotspring08 	217	not_alive	0	moves	1	natural 	1	n	0	0        	 	0.0	0	175.368249299994	175.468242999981	0.0999936999869533
183288	100	402	stimuli/plant/cactus/plant_cactus02.jpg          	1	6	1	plant_cactus02.jpg   	plant    	6	cactus    	4	cactus02    	41	alive    	1	still	0	natural 	1	n	0	0        	 	0.0	0	175.518251600035	175.618259100011	0.100007499975618
183438	100	403	stimuli/nonmovNat/sand/nmn_sand03.jpg            	1	6	1	nmn_sand03.jpg       	nonmovNat	5	sand      	31	sand03      	312	not_alive	0	still	0	natural 	1	n	0	0        	 	0.0	0	175.6682592	175.768279000011	0.100019800011069
183588	100	404	stimuli/movNat/waterfall/mn_waterfall05.jpg      	1	6	1	mn_waterfall05.jpg   	movNat   	3	waterfall 	37	waterfall05 	374	not_alive	0	moves	1	natural 	1	n	0	0        	 	0.0	0	175.818264200003	175.918252600008	0.0999884000048041
183738	100	405	stimuli/plant2/moss/plant_moss07.jpg             	1	6	1	plant_moss07.jpg     	plant2   	7	moss      	25	moss07      	256	alive    	1	still	0	natural 	1	n	0	0        	 	0.0	0	175.968266899989	176.068261000037	0.0999941000482068
183888	100	406	stimuli/movNat/hotspring/mn_hotspring03.jpg      	1	6	1	mn_hotspring03.jpg   	movNat   	3	hotspring 	21	hotspring03 	212	not_alive	0	moves	1	natural 	1	n	0	0        	 	0.0	0	176.1182654	176.218260199996	0.0999947999953292
184038	100	407	stimuli/movArt/boat/ma_boat02.jpg                	1	6	1	ma_boat02.jpg        	movArt   	2	boat      	2	boat02      	21	not_alive	0	moves	1	artefact	0	n	0	0        	 	0.0	0	176.268275099981	176.368290800019	0.100015700038057
184188	100	408	stimuli/movNat/fire/mn_fire09.jpg                	1	6	1	mn_fire09.jpg        	movNat   	3	fire      	15	fire09      	158	not_alive	0	moves	1	natural 	1	n	0	0        	 	0.0	0	176.418272999988	176.518274300033	0.100001300044823
184338	100	409	stimuli/nonmovNat/cliff/nmn_cliff06.jpg          	1	6	1	nmn_cliff06.jpg      	nonmovNat	5	cliff     	7	cliff06     	75	not_alive	0	still	0	natural 	1	n	0	0        	 	0.0	0	176.56827540003	176.668271999981	0.0999965999508277
184488	100	410	stimuli/nonmovNat/shell/nmn_shell06.jpg          	1	6	1	nmn_shell06.jpg      	nonmovNat	5	shell     	32	shell06     	325	not_alive	0	still	0	natural 	1	n	0	0        	 	0.0	0	176.718278600019	176.818271199998	0.0999925999785774
184639	100	411	stimuli/plant/grass/plant_grass04.jpg            	1	6	1	plant_grass04.jpg    	plant    	6	grass     	17	grass04     	173	alive    	1	still	0	natural 	1	n	1	0        	 	0.0	0	176.868317799992	176.968276400003	0.0999586000107229
184788	100	412	stimuli/plant/flower/plant_flower02.jpg          	1	6	1	plant_flower02.jpg   	plant    	6	flower    	16	flower02    	161	alive    	1	still	0	natural 	1	n	0	0        	 	0.0	0	177.018301300006	177.118291900028	0.099990600021556
