onset	duration	eventnumber	stimulus_file	blockno	trialno	is_faststream	stim	stim_category	category_number	exemplar	exemplar_number	image_name	image_number	aliveness	aliveness_bin	movement	movement_bin	naturalness	naturalness_bin	response_hand_alive	istarget	response	keypressed	rt	correct	time_stimon	time_stimoff	stimdur
109602	100	0	stimuli/animals/horse/animal_horse03.jpg         	1	1	1	animal_horse03.jpg   	animals  	0	horse     	20	horse03     	202	alive    	1	moves	1	natural 	1	n	0	0        	 	0.0	0	203.345326899998	203.445319599999	0.0999927000011667
109752	100	1	stimuli/nonmovNat/rock/nmn_rock05.jpg            	1	1	1	nmn_rock05.jpg       	nonmovNat	5	rock      	30	rock05      	304	not_alive	0	still	0	natural 	1	n	0	0        	 	0.0	0	203.495337199998	203.595321599998	0.099984399999812
109902	100	2	stimuli/nonmovArt/lock/nma_lock02.jpg            	1	1	1	nma_lock02.jpg       	nonmovArt	4	lock      	24	lock02      	241	not_alive	0	still	0	artefact	0	n	0	1        	a	0.0	0	203.645331099997	203.745325599997	0.0999945000003208
110052	100	3	stimuli/movNat/fire/mn_fire08.jpg                	1	1	1	mn_fire08.jpg        	movNat   	3	fire      	15	fire08      	157	not_alive	0	moves	1	natural 	1	n	0	0        	 	0.0	0	203.795336199997	203.8953291	0.0999929000026896
110202	100	4	stimuli/animals2/bee/animal_bee02.jpg            	1	1	1	animal_bee02.jpg     	animals2 	1	bee       	0	bee02       	1	alive    	1	moves	1	natural 	1	n	0	0        	 	0.0	0	203.945355599997	204.045333399998	0.0999778000004881
110352	100	5	stimuli/animals/horse/animal_horse07.jpg         	1	1	1	animal_horse07.jpg   	animals  	0	horse     	20	horse07     	206	alive    	1	moves	1	natural 	1	n	0	0        	 	0.0	0	204.095343199999	204.195335699998	0.0999924999996438
110502	100	6	stimuli/animals/dolphin/animal_dolphin08.jpg     	1	1	1	animal_dolphin08.jpg 	animals  	0	dolphin   	12	dolphin08   	127	alive    	1	moves	1	natural 	1	n	0	0        	 	0.0	0	204.2453456	204.345340599997	0.0999949999968521
110652	100	7	stimuli/movNat/waterfall/mn_waterfall09.jpg      	1	1	1	mn_waterfall09.jpg   	movNat   	3	waterfall 	37	waterfall09 	378	not_alive	0	moves	1	natural 	1	n	0	0        	 	0.0	0	204.395639299997	204.495365899998	0.0997266000013042
110802	100	8	stimuli/movArt/helicopter/ma_helicopter04.jpg    	1	1	1	ma_helicopter04.jpg  	movArt   	2	helicopter	19	helicopter04	193	not_alive	0	moves	1	artefact	0	n	0	0        	 	0.0	0	204.5453557	204.645349499999	0.0999937999986287
110952	100	9	stimuli/plant2/lemontree/plant_lemontree05.jpg   	1	1	1	plant_lemontree05.jpg	plant2   	7	lemontree 	22	lemontree05 	224	alive    	1	still	0	natural 	1	n	0	0        	 	0.0	0	204.695358699999	204.795352399997	0.0999936999978672
111102	100	10	stimuli/animals2/bee/animal_bee03.jpg            	1	1	1	animal_bee03.jpg     	animals2 	1	bee       	0	bee03       	2	alive    	1	moves	1	natural 	1	n	0	0        	 	0.0	0	204.845364599998	204.9453732	0.100008600002184
111252	100	11	stimuli/nonmovNat/rock/nmn_rock10.jpg            	1	1	1	nmn_rock10.jpg       	nonmovNat	5	rock      	30	rock10      	309	not_alive	0	still	0	natural 	1	n	0	0        	 	0.0	0	204.995365899998	205.095360199997	0.0999942999987979
111402	100	12	stimuli/plant2/lemontree/plant_lemontree01.jpg   	1	1	1	plant_lemontree01.jpg	plant2   	7	lemontree 	22	lemontree01 	220	alive    	1	still	0	natural 	1	n	0	0        	 	0.0	0	205.145370399998	205.245361899997	0.0999914999993052
111552	100	13	stimuli/nonmovArt/headphones/nma_headphones08.jpg	1	1	1	nma_headphones08.jpg 	nonmovArt	4	headphones	18	headphones08	187	not_alive	0	still	0	artefact	0	n	0	0        	 	0.0	0	205.295376399998	205.395368599999	0.0999922000009974
111702	100	14	stimuli/plant/tree/plant_tree06.jpg              	1	1	1	plant_tree06.jpg     	plant    	6	tree      	35	tree06      	355	alive    	1	still	0	natural 	1	n	0	0        	 	0.0	0	205.445379499997	205.5453734	0.0999939000030281
111852	100	15	stimuli/movNat/river/mn_river03.jpg              	1	1	1	mn_river03.jpg       	movNat   	3	river     	29	river03     	292	not_alive	0	moves	1	natural 	1	n	0	0        	 	0.0	0	205.595401099999	205.695376599997	0.0999754999975266
112002	100	16	stimuli/nonmovNat/shell/nmn_shell10.jpg          	1	1	1	nmn_shell10.jpg      	nonmovNat	5	shell     	32	shell10     	329	not_alive	0	still	0	natural 	1	n	0	0        	 	0.0	0	205.7453847	205.8453792	0.0999945000003208
112152	100	17	stimuli/movArt/boat/ma_boat03.jpg                	1	1	1	ma_boat03.jpg        	movArt   	2	boat      	2	boat03      	22	not_alive	0	moves	1	artefact	0	n	0	0        	 	0.0	0	205.895389099998	205.995383099998	0.0999940000001516
112302	100	18	stimuli/plant/tree/plant_tree06.jpg              	1	1	1	plant_tree06.jpg     	plant    	6	tree      	35	tree06      	355	alive    	1	still	0	natural 	1	n	0	0        	 	0.0	0	206.0453963	206.1453888	0.0999924999996438
112452	100	19	stimuli/plant/cactus/plant_cactus08.jpg          	1	1	1	plant_cactus08.jpg   	plant    	6	cactus    	4	cactus08    	47	alive    	1	still	0	natural 	1	n	0	0        	 	0.0	0	206.1953994	206.295390499999	0.0999910999998974
112602	100	20	stimuli/animals/dolphin/animal_dolphin08.jpg     	1	1	1	animal_dolphin08.jpg 	animals  	0	dolphin   	12	dolphin08   	127	alive    	1	moves	1	natural 	1	n	0	0        	 	0.0	0	206.345418299999	206.445394399998	0.0999760999984574
112752	100	21	stimuli/plant2/palmtree/plant_palmtree04.jpg     	1	1	1	plant_palmtree04.jpg 	plant2   	7	palmtree  	27	palmtree04  	273	alive    	1	still	0	natural 	1	n	0	0        	 	0.0	0	206.495406899998	206.595400899998	0.0999940000001516
112902	100	22	stimuli/plant/grass/plant_grass03.jpg            	1	1	1	plant_grass03.jpg    	plant    	6	grass     	17	grass03     	172	alive    	1	still	0	natural 	1	n	0	0        	 	0.0	0	206.645409299999	206.7454034	0.099994100000913
113052	100	23	stimuli/movArt/car/ma_car02.jpg                  	1	1	1	ma_car02.jpg         	movArt   	2	car       	5	car02       	51	not_alive	0	moves	1	artefact	0	n	0	0        	 	0.0	0	206.795416099998	206.895408299999	0.0999922000009974
113202	100	24	stimuli/nonmovArt/headphones/nma_headphones09.jpg	1	1	1	nma_headphones09.jpg 	nonmovArt	4	headphones	18	headphones09	188	not_alive	0	still	0	artefact	0	n	0	0        	 	0.0	0	206.945419599997	207.0454125	0.0999929000026896
113352	100	25	stimuli/nonmovNat/shell/nmn_shell08.jpg          	1	1	1	nmn_shell08.jpg      	nonmovNat	5	shell     	32	shell08     	327	not_alive	0	still	0	natural 	1	n	0	0        	 	0.0	0	207.095421399998	207.195415299997	0.0999938999993901
113502	100	26	stimuli/animals/horse/animal_horse09.jpg         	1	1	1	animal_horse09.jpg   	animals  	0	horse     	20	horse09     	208	alive    	1	moves	1	natural 	1	n	0	0        	 	0.0	0	207.245448599999	207.345419099998	0.0999704999994719
113652	100	27	stimuli/nonmovNat/crystal/nmn_crystal04.jpg      	1	1	1	nmn_crystal04.jpg    	nonmovNat	5	crystal   	10	crystal04   	103	not_alive	0	still	0	natural 	1	n	1	0        	 	0.0	0	207.3954299	207.495423	0.0999931000005745
113802	100	28	stimuli/animals2/tiger/animal_tiger04.jpg        	1	1	1	animal_tiger04.jpg   	animals2 	1	tiger     	33	tiger04     	333	alive    	1	moves	1	natural 	1	n	0	0        	 	0.0	0	207.545434899999	207.645429199998	0.0999942999987979
113952	100	29	stimuli/animals2/lemur/animal_lemur07.jpg        	1	1	1	animal_lemur07.jpg   	animals2 	1	lemur     	23	lemur07     	236	alive    	1	moves	1	natural 	1	n	0	0        	 	0.0	0	207.695455499997	207.795452399998	0.0999969000004057
114102	100	30	stimuli/plant2/palmtree/plant_palmtree02.jpg     	1	1	1	plant_palmtree02.jpg 	plant2   	7	palmtree  	27	palmtree02  	271	alive    	1	still	0	natural 	1	n	1	1        	a	0.0001814000024751	1	207.845443299997	207.945436599999	0.0999933000020974
114252	100	31	stimuli/plant2/fern/plant_fern02.jpg             	1	1	1	plant_fern02.jpg     	plant2   	7	fern      	14	fern02      	141	alive    	1	still	0	natural 	1	n	0	0        	 	0.0	0	207.9954855	208.095440199999	0.0999546999992162
114402	100	32	stimuli/movArt/train/ma_train05.jpg              	1	1	1	ma_train05.jpg       	movArt   	2	train     	34	train05     	344	not_alive	0	moves	1	artefact	0	n	0	0        	 	0.0	0	208.145451799999	208.245443799999	0.0999919999994745
114552	100	33	stimuli/movNat/waves/mn_waves09.jpg              	1	1	1	mn_waves09.jpg       	movNat   	3	waves     	38	waves09     	388	not_alive	0	moves	1	natural 	1	n	0	0        	 	0.0	0	208.2954546	208.3954486	0.0999940000001516
114702	100	34	stimuli/plant2/fern/plant_fern04.jpg             	1	1	1	plant_fern04.jpg     	plant2   	7	fern      	14	fern04      	143	alive    	1	still	0	natural 	1	n	0	0        	 	0.0	0	208.445458099999	208.545451999998	0.0999938999993901
114852	100	35	stimuli/plant/cactus/plant_cactus04.jpg          	1	1	1	plant_cactus04.jpg   	plant    	6	cactus    	4	cactus04    	43	alive    	1	still	0	natural 	1	n	0	0        	 	0.0	0	208.595461999997	208.695473	0.100011000002269
115002	100	36	stimuli/nonmovArt/clothespeg/nma_clothespeg01.jpg	1	1	1	nma_clothespeg01.jpg 	nonmovArt	4	clothespeg	8	clothespeg01	80	not_alive	0	still	0	artefact	0	n	1	0        	 	0.0	0	208.745465399999	208.8454585	0.0999931000005745
115152	100	37	stimuli/movArt/car/ma_car06.jpg                  	1	1	1	ma_car06.jpg         	movArt   	2	car       	5	car06       	55	not_alive	0	moves	1	artefact	0	n	0	0        	 	0.0	0	208.895471199998	208.995464099997	0.0999928999990516
115302	100	38	stimuli/movNat/fire/mn_fire10.jpg                	1	1	1	mn_fire10.jpg        	movNat   	3	fire      	15	fire10      	159	not_alive	0	moves	1	natural 	1	n	0	1        	a	0.292124799998419	1	209.045474899998	209.1454834	0.100008500001422
115452	100	39	stimuli/animals2/bee/animal_bee01.jpg            	1	1	1	animal_bee01.jpg     	animals2 	1	bee       	0	bee01       	0	alive    	1	moves	1	natural 	1	n	0	0        	 	0.0	0	209.195477999998	209.2954708	0.0999928000019281
115602	100	40	stimuli/plant2/moss/plant_moss08.jpg             	1	1	1	plant_moss08.jpg     	plant2   	7	moss      	25	moss08      	257	alive    	1	still	0	natural 	1	n	0	0        	 	0.0	0	209.3454809	209.445474999997	0.099994099997275
115752	100	41	stimuli/animals/cat/animal_cat01.jpg             	1	1	1	animal_cat01.jpg     	animals  	0	cat       	6	cat01       	60	alive    	1	moves	1	natural 	1	n	0	0        	 	0.0	0	209.495486699998	209.595479399999	0.0999927000011667
115902	100	42	stimuli/animals/eagle/animal_eagle08.jpg         	1	1	1	animal_eagle08.jpg   	animals  	0	eagle     	13	eagle08     	137	alive    	1	moves	1	natural 	1	n	0	0        	 	0.0	0	209.645490299998	209.745484299998	0.0999940000001516
116052	100	43	stimuli/nonmovArt/mug/nma_mug02.jpg              	1	1	1	nma_mug02.jpg        	nonmovArt	4	mug       	26	mug02       	261	not_alive	0	still	0	artefact	0	n	0	0        	 	0.0	0	209.795512099998	209.895486199999	0.0999741000014183
116202	100	44	stimuli/nonmovArt/mug/nma_mug05.jpg              	1	1	1	nma_mug05.jpg        	nonmovArt	4	mug       	26	mug05       	264	not_alive	0	still	0	artefact	0	n	0	0        	 	0.0	0	209.945498399997	210.045491999997	0.0999936000007438
116352	100	45	stimuli/plant/grass/plant_grass09.jpg            	1	1	1	plant_grass09.jpg    	plant    	6	grass     	17	grass09     	178	alive    	1	still	0	natural 	1	n	0	0        	 	0.0	0	210.095527699999	210.195494699998	0.0999669999982871
116502	100	46	stimuli/plant/flower/plant_flower07.jpg          	1	1	1	plant_flower07.jpg   	plant    	6	flower    	16	flower07    	166	alive    	1	still	0	natural 	1	n	0	0        	 	0.0	0	210.245505899999	210.345499399998	0.0999934999999823
116652	100	47	stimuli/plant2/clover/plant_clover08.jpg         	1	1	1	plant_clover08.jpg   	plant2   	7	clover    	9	clover08    	97	alive    	1	still	0	natural 	1	n	0	0        	 	0.0	0	210.395508899997	210.495501499998	0.0999926000004052
116802	100	48	stimuli/plant/cactus/plant_cactus06.jpg          	1	1	1	plant_cactus06.jpg   	plant    	6	cactus    	4	cactus06    	45	alive    	1	still	0	natural 	1	n	0	0        	 	0.0	0	210.545513999998	210.645506299999	0.0999923000017588
116952	100	49	stimuli/movArt/train/ma_train07.jpg              	1	1	1	ma_train07.jpg       	movArt   	2	train     	34	train07     	346	not_alive	0	moves	1	artefact	0	n	0	0        	 	0.0	0	210.695518799999	210.7955286	0.100009800000407
117102	100	50	stimuli/plant2/fern/plant_fern10.jpg             	1	1	1	plant_fern10.jpg     	plant2   	7	fern      	14	fern10      	149	alive    	1	still	0	natural 	1	n	0	0        	 	0.0	0	210.845521199997	210.945514799998	0.0999936000007438
117252	100	51	stimuli/animals/dog/animal_dog04.jpg             	1	1	1	animal_dog04.jpg     	animals  	0	dog       	11	dog04       	113	alive    	1	moves	1	natural 	1	n	0	0        	 	0.0	0	210.995524599999	211.095533199998	0.100008599998546
117402	100	52	stimuli/movArt/boat/ma_boat09.jpg                	1	1	1	ma_boat09.jpg        	movArt   	2	boat      	2	boat09      	28	not_alive	0	moves	1	artefact	0	n	0	0        	 	0.0	0	211.145527499997	211.245523599999	0.0999961000015901
117552	100	53	stimuli/animals2/lemur/animal_lemur03.jpg        	1	1	1	animal_lemur03.jpg   	animals2 	1	lemur     	23	lemur03     	232	alive    	1	moves	1	natural 	1	n	0	0        	 	0.0	0	211.295540499999	211.395527299999	0.0999867999998969
117702	100	54	stimuli/plant/flower/plant_flower02.jpg          	1	1	1	plant_flower02.jpg   	plant    	6	flower    	16	flower02    	161	alive    	1	still	0	natural 	1	n	0	0        	 	0.0	0	211.445536799998	211.545531099997	0.0999942999987979
117852	100	55	stimuli/animals/dolphin/animal_dolphin04.jpg     	1	1	1	animal_dolphin04.jpg 	animals  	0	dolphin   	12	dolphin04   	123	alive    	1	moves	1	natural 	1	n	0	0        	 	0.0	0	211.595540999999	211.695578999999	0.100038000000495
118002	100	56	stimuli/nonmovArt/headphones/nma_headphones03.jpg	1	1	1	nma_headphones03.jpg 	nonmovArt	4	headphones	18	headphones03	182	not_alive	0	still	0	artefact	0	n	0	0        	 	0.0	0	211.745555199999	211.845539399997	0.0999841999982891
118152	100	57	stimuli/plant/grass/plant_grass04.jpg            	1	1	1	plant_grass04.jpg    	plant    	6	grass     	17	grass04     	173	alive    	1	still	0	natural 	1	n	0	0        	 	0.0	0	211.8955494	211.9955424	0.099992999999813
118302	100	58	stimuli/nonmovArt/mug/nma_mug08.jpg              	1	1	1	nma_mug08.jpg        	nonmovArt	4	mug       	26	mug08       	267	not_alive	0	still	0	artefact	0	n	0	0        	 	0.0	0	212.045556999998	212.145542999999	0.0999860000010813
118452	100	59	stimuli/movArt/helicopter/ma_helicopter06.jpg    	1	1	1	ma_helicopter06.jpg  	movArt   	2	helicopter	19	helicopter06	195	not_alive	0	moves	1	artefact	0	n	0	0        	 	0.0	0	212.195557199997	212.295551699997	0.0999945000003208
118602	100	60	stimuli/plant2/moss/plant_moss08.jpg             	1	1	1	plant_moss08.jpg     	plant2   	7	moss      	25	moss08      	257	alive    	1	still	0	natural 	1	n	0	0        	 	0.0	0	212.345559199999	212.445555399998	0.0999961999987136
118752	100	61	stimuli/animals2/whale/animal_whale08.jpg        	1	1	1	animal_whale08.jpg   	animals2 	1	whale     	39	whale08     	397	alive    	1	moves	1	natural 	1	n	1	0        	 	0.0	0	212.4955778	212.5955603	0.0999824999998964
118902	100	62	stimuli/plant2/clover/plant_clover05.jpg         	1	1	1	plant_clover05.jpg   	plant2   	7	clover    	9	clover05    	94	alive    	1	still	0	natural 	1	n	0	1        	a	0.250175399996806	1	212.645584299997	212.745564199999	0.0999799000019266
119052	100	63	stimuli/nonmovNat/sand/nmn_sand10.jpg            	1	1	1	nmn_sand10.jpg       	nonmovNat	5	sand      	31	sand10      	319	not_alive	0	still	0	natural 	1	n	0	0        	 	0.0	0	212.795575199998	212.895564899998	0.0999897000001511
119202	100	64	stimuli/animals2/tiger/animal_tiger05.jpg        	1	1	1	animal_tiger05.jpg   	animals2 	1	tiger     	33	tiger05     	334	alive    	1	moves	1	natural 	1	n	0	0        	 	0.0	0	212.9455796	213.0455721	0.0999924999996438
119352	100	65	stimuli/animals/cat/animal_cat06.jpg             	1	1	1	animal_cat06.jpg     	animals  	0	cat       	6	cat06       	65	alive    	1	moves	1	natural 	1	n	0	0        	 	0.0	0	213.095581099999	213.1955628	0.0999817000010808
119502	100	66	stimuli/movArt/helicopter/ma_helicopter05.jpg    	1	1	1	ma_helicopter05.jpg  	movArt   	2	helicopter	19	helicopter05	194	not_alive	0	moves	1	artefact	0	n	0	0        	 	0.0	0	213.245584099997	213.345579199999	0.0999951000012516
119652	100	67	stimuli/animals/cat/animal_cat06.jpg             	1	1	1	animal_cat06.jpg     	animals  	0	cat       	6	cat06       	65	alive    	1	moves	1	natural 	1	n	0	0        	 	0.0	0	213.395590299999	213.4955811	0.099990800001251
119802	100	68	stimuli/animals2/pigeon/animal_pigeon06.jpg      	1	1	1	animal_pigeon06.jpg  	animals2 	1	pigeon    	28	pigeon06    	285	alive    	1	moves	1	natural 	1	n	0	0        	 	0.0	0	213.5455955	213.645584899998	0.0999893999978667
119952	100	69	stimuli/nonmovNat/crystal/nmn_crystal10.jpg      	1	1	1	nmn_crystal10.jpg    	nonmovNat	5	crystal   	10	crystal10   	109	not_alive	0	still	0	natural 	1	n	0	0        	 	0.0	0	213.695598499999	213.795612099999	0.100013600000239
120102	100	70	stimuli/animals2/pigeon/animal_pigeon01.jpg      	1	1	1	animal_pigeon01.jpg  	animals2 	1	pigeon    	28	pigeon01    	280	alive    	1	moves	1	natural 	1	n	0	0        	 	0.0	0	213.845598699998	213.945594099998	0.0999953999998979
120252	100	71	stimuli/animals/eagle/animal_eagle10.jpg         	1	1	1	animal_eagle10.jpg   	animals  	0	eagle     	13	eagle10     	139	alive    	1	moves	1	natural 	1	n	0	0        	 	0.0	0	213.995606699998	214.095599499997	0.0999927999982901
120402	100	72	stimuli/plant2/clover/plant_clover05.jpg         	1	1	1	plant_clover05.jpg   	plant2   	7	clover    	9	clover05    	94	alive    	1	still	0	natural 	1	n	0	0        	 	0.0	0	214.145613799999	214.245602699997	0.0999888999976974
120552	100	73	stimuli/animals2/lemur/animal_lemur06.jpg        	1	1	1	animal_lemur06.jpg   	animals2 	1	lemur     	23	lemur06     	235	alive    	1	moves	1	natural 	1	n	0	0        	 	0.0	0	214.295626799998	214.395604599998	0.0999778000004881
120702	100	74	stimuli/plant/vine/plant_vine04.jpg              	1	1	1	plant_vine04.jpg     	plant    	6	vine      	36	vine04      	363	alive    	1	still	0	natural 	1	n	0	0        	 	0.0	0	214.445616099998	214.545608299999	0.0999922000009974
120852	100	75	stimuli/nonmovNat/cliff/nmn_cliff06.jpg          	1	1	1	nmn_cliff06.jpg      	nonmovNat	5	cliff     	7	cliff06     	75	not_alive	0	still	0	natural 	1	n	0	0        	 	0.0	0	214.5956209	214.695616899997	0.0999959999971907
121002	100	76	stimuli/animals/eagle/animal_eagle07.jpg         	1	1	1	animal_eagle07.jpg   	animals  	0	eagle     	13	eagle07     	136	alive    	1	moves	1	natural 	1	n	0	0        	 	0.0	0	214.745624499999	214.845615899998	0.0999913999985438
121152	100	77	stimuli/animals/dog/animal_dog03.jpg             	1	1	1	animal_dog03.jpg     	animals  	0	dog       	11	dog03       	112	alive    	1	moves	1	natural 	1	n	0	0        	 	0.0	0	214.895648899997	214.995637299999	0.0999884000011662
121302	100	78	stimuli/nonmovNat/rock/nmn_rock05.jpg            	1	1	1	nmn_rock05.jpg       	nonmovNat	5	rock      	30	rock05      	304	not_alive	0	still	0	natural 	1	n	0	0        	 	0.0	0	215.045632699999	215.145623699998	0.099990999999136
121452	100	79	stimuli/movNat/hotspring/mn_hotspring02.jpg      	1	1	1	mn_hotspring02.jpg   	movNat   	3	hotspring 	21	hotspring02 	211	not_alive	0	moves	1	natural 	1	n	0	0        	 	0.0	0	215.195637599998	215.295628599997	0.099990999999136
127519	100	80	stimuli/movNat/river/mn_river06.jpg              	1	2	1	mn_river06.jpg       	movNat   	3	river     	29	river06     	295	not_alive	0	moves	1	natural 	1	n	0	0        	 	0.0	0	221.262475399999	221.362473999998	0.0999985999987984
127669	100	81	stimuli/movNat/hotspring/mn_hotspring06.jpg      	1	2	1	mn_hotspring06.jpg   	movNat   	3	hotspring 	21	hotspring06 	215	not_alive	0	moves	1	natural 	1	n	0	0        	 	0.0	0	221.412475199999	221.512467599998	0.0999923999988823
127819	100	82	stimuli/nonmovArt/bench/nma_bench08.jpg          	1	2	1	nma_bench08.jpg      	nonmovArt	4	bench     	1	bench08     	17	not_alive	0	still	0	artefact	0	n	0	0        	 	0.0	0	221.562490999997	221.6624691	0.0999781000027724
127969	100	83	stimuli/animals2/whale/animal_whale08.jpg        	1	2	1	animal_whale08.jpg   	animals2 	1	whale     	39	whale08     	397	alive    	1	moves	1	natural 	1	n	0	0        	 	0.0	0	221.7125055	221.812477199997	0.0999716999976954
128119	100	84	stimuli/nonmovArt/lock/nma_lock06.jpg            	1	2	1	nma_lock06.jpg       	nonmovArt	4	lock      	24	lock06      	245	not_alive	0	still	0	artefact	0	n	0	0        	 	0.0	0	221.862490199997	221.962481299997	0.0999910999998974
128269	100	85	stimuli/nonmovArt/lock/nma_lock06.jpg            	1	2	1	nma_lock06.jpg       	nonmovArt	4	lock      	24	lock06      	245	not_alive	0	still	0	artefact	0	n	0	0        	 	0.0	0	222.012491099998	222.112484199999	0.0999931000005745
128419	100	86	stimuli/animals2/tiger/animal_tiger03.jpg        	1	2	1	animal_tiger03.jpg   	animals2 	1	tiger     	33	tiger03     	332	alive    	1	moves	1	natural 	1	n	0	0        	 	0.0	0	222.162505799999	222.262485399999	0.0999795999996422
128569	100	87	stimuli/movNat/waterfall/mn_waterfall09.jpg      	1	2	1	mn_waterfall09.jpg   	movNat   	3	waterfall 	37	waterfall09 	378	not_alive	0	moves	1	natural 	1	n	0	0        	 	0.0	0	222.312497699997	222.4124902	0.0999925000032818
128719	100	88	stimuli/animals2/pigeon/animal_pigeon04.jpg      	1	2	1	animal_pigeon04.jpg  	animals2 	1	pigeon    	28	pigeon04    	283	alive    	1	moves	1	natural 	1	n	0	0        	 	0.0	0	222.462510699999	222.562494599999	0.0999838999996427
128869	100	89	stimuli/movNat/hotspring/mn_hotspring06.jpg      	1	2	1	mn_hotspring06.jpg   	movNat   	3	hotspring 	21	hotspring06 	215	not_alive	0	moves	1	natural 	1	n	0	0        	 	0.0	0	222.612505399997	222.712500499998	0.0999951000012516
129019	100	90	stimuli/movArt/bus/ma_bus02.jpg                  	1	2	1	ma_bus02.jpg         	movArt   	2	bus       	3	bus02       	31	not_alive	0	moves	1	artefact	0	n	0	0        	 	0.0	0	222.762522999998	222.862499699997	0.0999766999993881
129169	100	91	stimuli/plant2/palmtree/plant_palmtree03.jpg     	1	2	1	plant_palmtree03.jpg 	plant2   	7	palmtree  	27	palmtree03  	272	alive    	1	still	0	natural 	1	n	0	0        	 	0.0	0	222.912514799998	223.012507299998	0.0999924999996438
129319	100	92	stimuli/movArt/bus/ma_bus01.jpg                  	1	2	1	ma_bus01.jpg         	movArt   	2	bus       	3	bus01       	30	not_alive	0	moves	1	artefact	0	n	0	0        	 	0.0	0	223.0625172	223.162510799997	0.0999935999971058
129469	100	93	stimuli/nonmovNat/cliff/nmn_cliff08.jpg          	1	2	1	nmn_cliff08.jpg      	nonmovNat	5	cliff     	7	cliff08     	77	not_alive	0	still	0	natural 	1	n	0	0        	 	0.0	0	223.212523999999	223.312513999997	0.0999899999987974
129619	100	94	stimuli/nonmovNat/sand/nmn_sand02.jpg            	1	2	1	nmn_sand02.jpg       	nonmovNat	5	sand      	31	sand02      	311	not_alive	0	still	0	natural 	1	n	0	0        	 	0.0	0	223.362524799999	223.462531099998	0.100006299999222
129769	100	95	stimuli/plant/vine/plant_vine04.jpg              	1	2	1	plant_vine04.jpg     	plant    	6	vine      	36	vine04      	363	alive    	1	still	0	natural 	1	n	0	0        	 	0.0	0	223.512530399999	223.612524099997	0.0999936999978672
129919	100	96	stimuli/movArt/boat/ma_boat08.jpg                	1	2	1	ma_boat08.jpg        	movArt   	2	boat      	2	boat08      	27	not_alive	0	moves	1	artefact	0	n	0	0        	 	0.0	0	223.662534199997	223.762527399998	0.0999932000013359
130069	100	97	stimuli/movArt/car/ma_car10.jpg                  	1	2	1	ma_car10.jpg         	movArt   	2	car       	5	car10       	59	not_alive	0	moves	1	artefact	0	n	0	0        	 	0.0	0	223.8125368	223.912540399997	0.100003599996853
130219	100	98	stimuli/plant/flower/plant_flower07.jpg          	1	2	1	plant_flower07.jpg   	plant    	6	flower    	16	flower07    	166	alive    	1	still	0	natural 	1	n	0	0        	 	0.0	0	223.962541699999	224.062535199999	0.0999934999999823
130369	100	99	stimuli/plant2/moss/plant_moss10.jpg             	1	2	1	plant_moss10.jpg     	plant2   	7	moss      	25	moss10      	259	alive    	1	still	0	natural 	1	n	0	0        	 	0.0	0	224.112544899999	224.212538699998	0.0999937999986287
130519	100	100	stimuli/animals2/whale/animal_whale06.jpg        	1	2	1	animal_whale06.jpg   	animals2 	1	whale     	39	whale06     	395	alive    	1	moves	1	natural 	1	n	0	0        	 	0.0	0	224.2625477	224.362541999999	0.0999942999987979
130669	100	101	stimuli/movArt/bus/ma_bus04.jpg                  	1	2	1	ma_bus04.jpg         	movArt   	2	bus       	3	bus04       	33	not_alive	0	moves	1	artefact	0	n	0	0        	 	0.0	0	224.412555299998	224.5125477	0.0999924000025203
130819	100	102	stimuli/nonmovNat/sand/nmn_sand01.jpg            	1	2	1	nmn_sand01.jpg       	nonmovNat	5	sand      	31	sand01      	310	not_alive	0	still	0	natural 	1	n	1	0        	 	0.0	0	224.562556499997	224.662578599997	0.100022099999478
130969	100	103	stimuli/nonmovArt/clothespeg/nma_clothespeg04.jpg	1	2	1	nma_clothespeg04.jpg 	nonmovArt	4	clothespeg	8	clothespeg04	83	not_alive	0	still	0	artefact	0	n	0	1        	a	0.142157700000098	1	224.7125614	224.812554	0.0999926000004052
131119	100	104	stimuli/movNat/waves/mn_waves03.jpg              	1	2	1	mn_waves03.jpg       	movNat   	3	waves     	38	waves03     	382	not_alive	0	moves	1	natural 	1	n	0	0        	 	0.0	0	224.8625689	224.962557399998	0.0999884999982896
131269	100	105	stimuli/movArt/train/ma_train05.jpg              	1	2	1	ma_train05.jpg       	movArt   	2	train     	34	train05     	344	not_alive	0	moves	1	artefact	0	n	0	0        	 	0.0	0	225.012581999999	225.1125565	0.0999745000008261
131419	100	106	stimuli/movNat/waves/mn_waves05.jpg              	1	2	1	mn_waves05.jpg       	movNat   	3	waves     	38	waves05     	384	not_alive	0	moves	1	natural 	1	n	0	0        	 	0.0	0	225.162567799998	225.2625606	0.0999928000019281
131569	100	107	stimuli/nonmovNat/crystal/nmn_crystal03.jpg      	1	2	1	nmn_crystal03.jpg    	nonmovNat	5	crystal   	10	crystal03   	102	not_alive	0	still	0	natural 	1	n	0	0        	 	0.0	0	225.312572199997	225.412591799999	0.10001960000227
131719	100	108	stimuli/plant/vine/plant_vine02.jpg              	1	2	1	plant_vine02.jpg     	plant    	6	vine      	36	vine02      	361	alive    	1	still	0	natural 	1	n	0	0        	 	0.0	0	225.462593799999	225.562568399997	0.0999745999979496
131869	100	109	stimuli/plant2/lemontree/plant_lemontree04.jpg   	1	2	1	plant_lemontree04.jpg	plant2   	7	lemontree 	22	lemontree04 	223	alive    	1	still	0	natural 	1	n	0	0        	 	0.0	0	225.6125804	225.712572299999	0.099991899998713
132019	100	110	stimuli/movNat/river/mn_river09.jpg              	1	2	1	mn_river09.jpg       	movNat   	3	river     	29	river09     	298	not_alive	0	moves	1	natural 	1	n	0	0        	 	0.0	0	225.7625835	225.862592699999	0.100009199999477
132169	100	111	stimuli/movNat/waterfall/mn_waterfall06.jpg      	1	2	1	mn_waterfall06.jpg   	movNat   	3	waterfall 	37	waterfall06 	375	not_alive	0	moves	1	natural 	1	n	0	0        	 	0.0	0	225.912584999998	226.012595299999	0.100010300000577
132319	100	112	stimuli/nonmovArt/clothespeg/nma_clothespeg01.jpg	1	2	1	nma_clothespeg01.jpg 	nonmovArt	4	clothespeg	8	clothespeg01	80	not_alive	0	still	0	artefact	0	n	0	0        	 	0.0	0	226.062589899997	226.162596399998	0.100006500000745
132469	100	113	stimuli/nonmovArt/bench/nma_bench05.jpg          	1	2	1	nma_bench05.jpg      	nonmovArt	4	bench     	1	bench05     	14	not_alive	0	still	0	artefact	0	n	0	0        	 	0.0	0	226.212594699999	226.312586	0.0999913000014203
132619	100	114	stimuli/nonmovArt/bench/nma_bench09.jpg          	1	2	1	nma_bench09.jpg      	nonmovArt	4	bench     	1	bench09     	18	not_alive	0	still	0	artefact	0	n	1	0        	 	0.0	0	226.362598399999	226.462591899999	0.0999934999999823
132769	100	115	stimuli/nonmovNat/cliff/nmn_cliff08.jpg          	1	2	1	nmn_cliff08.jpg      	nonmovNat	5	cliff     	7	cliff08     	77	not_alive	0	still	0	natural 	1	n	0	0        	 	0.0	0	226.512634299997	226.612610699998	0.0999764000007417
132919	100	116	stimuli/nonmovNat/shell/nmn_shell05.jpg          	1	2	1	nmn_shell05.jpg      	nonmovNat	5	shell     	32	shell05     	324	not_alive	0	still	0	natural 	1	n	0	1        	a	0.302794499999436	1	226.662603699999	226.762599499998	0.0999957999993058
133069	100	117	stimuli/movNat/fire/mn_fire01.jpg                	1	2	1	mn_fire01.jpg        	movNat   	3	fire      	15	fire01      	150	not_alive	0	moves	1	natural 	1	n	0	0        	 	0.0	0	226.812609499997	226.912604199999	0.0999947000018437
133219	100	118	stimuli/plant/tree/plant_tree05.jpg              	1	2	1	plant_tree05.jpg     	plant    	6	tree      	35	tree05      	354	alive    	1	still	0	natural 	1	n	0	0        	 	0.0	0	226.9626159	227.062625999999	0.100010099999054
133369	100	119	stimuli/animals/dog/animal_dog05.jpg             	1	2	1	animal_dog05.jpg     	animals  	0	dog       	11	dog05       	114	alive    	1	moves	1	natural 	1	n	0	0        	 	0.0	0	227.112631399999	227.212614199998	0.0999827999985428
133519	100	120	stimuli/animals/horse/animal_horse10.jpg         	1	2	1	animal_horse10.jpg   	animals  	0	horse     	20	horse10     	209	alive    	1	moves	1	natural 	1	n	0	0        	 	0.0	0	227.2626504	227.362616099999	0.0999656999993022
133669	100	121	stimuli/plant2/palmtree/plant_palmtree06.jpg     	1	2	1	plant_palmtree06.jpg 	plant2   	7	palmtree  	27	palmtree06  	275	alive    	1	still	0	natural 	1	n	0	0        	 	0.0	0	227.4126268	227.5126313	0.100004500000068
133819	100	122	stimuli/plant/cactus/plant_cactus02.jpg          	1	2	1	plant_cactus02.jpg   	plant    	6	cactus    	4	cactus02    	41	alive    	1	still	0	natural 	1	n	0	0        	 	0.0	0	227.562630299999	227.662623099997	0.0999927999982901
133969	100	123	stimuli/animals/eagle/animal_eagle09.jpg         	1	2	1	animal_eagle09.jpg   	animals  	0	eagle     	13	eagle09     	138	alive    	1	moves	1	natural 	1	n	0	0        	 	0.0	0	227.7126341	227.812628	0.0999938999993901
134119	100	124	stimuli/animals2/lemur/animal_lemur08.jpg        	1	2	1	animal_lemur08.jpg   	animals2 	1	lemur     	23	lemur08     	237	alive    	1	moves	1	natural 	1	n	0	0        	 	0.0	0	227.862657899997	227.9626307	0.0999728000024334
134269	100	125	stimuli/animals/horse/animal_horse06.jpg         	1	2	1	animal_horse06.jpg   	animals  	0	horse     	20	horse06     	205	alive    	1	moves	1	natural 	1	n	0	0        	 	0.0	0	228.012654799997	228.112633499997	0.0999787000000652
134419	100	126	stimuli/animals/dolphin/animal_dolphin05.jpg     	1	2	1	animal_dolphin05.jpg 	animals  	0	dolphin   	12	dolphin05   	124	alive    	1	moves	1	natural 	1	n	0	0        	 	0.0	0	228.162647199999	228.262642899997	0.0999956999985443
134569	100	127	stimuli/plant/cactus/plant_cactus01.jpg          	1	2	1	plant_cactus01.jpg   	plant    	6	cactus    	4	cactus01    	40	alive    	1	still	0	natural 	1	n	0	0        	 	0.0	0	228.3126476	228.4126449	0.0999972999998136
134719	100	128	stimuli/nonmovArt/lock/nma_lock03.jpg            	1	2	1	nma_lock03.jpg       	nonmovArt	4	lock      	24	lock03      	242	not_alive	0	still	0	artefact	0	n	0	0        	 	0.0	0	228.462656699998	228.5626505	0.0999938000022666
134869	100	129	stimuli/movNat/river/mn_river07.jpg              	1	2	1	mn_river07.jpg       	movNat   	3	river     	29	river07     	296	not_alive	0	moves	1	natural 	1	n	0	0        	 	0.0	0	228.612665299999	228.712653799997	0.0999884999982896
135019	100	130	stimuli/movArt/boat/ma_boat07.jpg                	1	2	1	ma_boat07.jpg        	movArt   	2	boat      	2	boat07      	26	not_alive	0	moves	1	artefact	0	n	0	0        	 	0.0	0	228.762662499998	228.8626549	0.0999924000025203
135169	100	131	stimuli/plant/tree/plant_tree10.jpg              	1	2	1	plant_tree10.jpg     	plant    	6	tree      	35	tree10      	359	alive    	1	still	0	natural 	1	n	0	0        	 	0.0	0	228.912667999997	229.012663399997	0.0999953999998979
135319	100	132	stimuli/nonmovArt/clothespeg/nma_clothespeg04.jpg	1	2	1	nma_clothespeg04.jpg 	nonmovArt	4	clothespeg	8	clothespeg04	83	not_alive	0	still	0	artefact	0	n	0	0        	 	0.0	0	229.062671	229.1626636	0.0999926000004052
135469	100	133	stimuli/movNat/waves/mn_waves03.jpg              	1	2	1	mn_waves03.jpg       	movNat   	3	waves     	38	waves03     	382	not_alive	0	moves	1	natural 	1	n	0	0        	 	0.0	0	229.212672099999	229.312668499999	0.0999964000002365
135619	100	134	stimuli/nonmovNat/sand/nmn_sand04.jpg            	1	2	1	nmn_sand04.jpg       	nonmovNat	5	sand      	31	sand04      	313	not_alive	0	still	0	natural 	1	n	0	0        	 	0.0	0	229.362677899997	229.462672599999	0.0999947000018437
135769	100	135	stimuli/nonmovNat/crystal/nmn_crystal04.jpg      	1	2	1	nmn_crystal04.jpg    	nonmovNat	5	crystal   	10	crystal04   	103	not_alive	0	still	0	natural 	1	n	0	0        	 	0.0	0	229.512680899999	229.612674699998	0.0999937999986287
135919	100	136	stimuli/plant/grass/plant_grass10.jpg            	1	2	1	plant_grass10.jpg    	plant    	6	grass     	17	grass10     	179	alive    	1	still	0	natural 	1	n	0	0        	 	0.0	0	229.662686299998	229.762677899998	0.0999916000000667
136069	100	137	stimuli/nonmovArt/bench/nma_bench05.jpg          	1	2	1	nma_bench05.jpg      	nonmovArt	4	bench     	1	bench05     	14	not_alive	0	still	0	artefact	0	n	0	0        	 	0.0	0	229.812689899998	229.912682499998	0.0999926000004052
136219	100	138	stimuli/plant/flower/plant_flower06.jpg          	1	2	1	plant_flower06.jpg   	plant    	6	flower    	16	flower06    	165	alive    	1	still	0	natural 	1	n	0	0        	 	0.0	0	229.962713899997	230.062689399998	0.0999755000011646
136369	100	139	stimuli/movNat/waterfall/mn_waterfall04.jpg      	1	2	1	mn_waterfall04.jpg   	movNat   	3	waterfall 	37	waterfall04 	373	not_alive	0	moves	1	natural 	1	n	0	0        	 	0.0	0	230.1127055	230.212711699998	0.100006199998461
136519	100	140	stimuli/movNat/waves/mn_waves05.jpg              	1	2	1	mn_waves05.jpg       	movNat   	3	waves     	38	waves05     	384	not_alive	0	moves	1	natural 	1	n	1	0        	 	0.0	0	230.262700799998	230.362692399998	0.0999916000000667
136669	100	141	stimuli/movNat/river/mn_river01.jpg              	1	2	1	mn_river01.jpg       	movNat   	3	river     	29	river01     	290	not_alive	0	moves	1	natural 	1	n	0	0        	 	0.0	0	230.412705399998	230.5126987	0.0999933000020974
136819	100	142	stimuli/nonmovNat/crystal/nmn_crystal06.jpg      	1	2	1	nmn_crystal06.jpg    	nonmovNat	5	crystal   	10	crystal06   	105	not_alive	0	still	0	natural 	1	n	0	1        	a	0.391988899998978	1	230.562711699997	230.662703399998	0.0999917000008281
136969	100	143	stimuli/plant2/fern/plant_fern03.jpg             	1	2	1	plant_fern03.jpg     	plant2   	7	fern      	14	fern03      	142	alive    	1	still	0	natural 	1	n	0	0        	 	0.0	0	230.712712699998	230.812707999998	0.0999952999991365
137119	100	144	stimuli/plant/vine/plant_vine05.jpg              	1	2	1	plant_vine05.jpg     	plant    	6	vine      	36	vine05      	364	alive    	1	still	0	natural 	1	n	0	0        	 	0.0	0	230.8627251	230.962736999998	0.100011899998208
137269	100	145	stimuli/animals/dog/animal_dog02.jpg             	1	2	1	animal_dog02.jpg     	animals  	0	dog       	11	dog02       	111	alive    	1	moves	1	natural 	1	n	0	0        	 	0.0	0	231.012738399997	231.112713899998	0.0999755000011646
137419	100	146	stimuli/animals2/lemur/animal_lemur10.jpg        	1	2	1	animal_lemur10.jpg   	animals2 	1	lemur     	23	lemur10     	239	alive    	1	moves	1	natural 	1	n	0	0        	 	0.0	0	231.1627262	231.262717699999	0.0999914999993052
137569	100	147	stimuli/animals2/tiger/animal_tiger03.jpg        	1	2	1	animal_tiger03.jpg   	animals2 	1	tiger     	33	tiger03     	332	alive    	1	moves	1	natural 	1	n	0	0        	 	0.0	0	231.312728999997	231.412723199999	0.0999942000016745
137719	100	148	stimuli/plant/tree/plant_tree02.jpg              	1	2	1	plant_tree02.jpg     	plant    	6	tree      	35	tree02      	351	alive    	1	still	0	natural 	1	n	0	0        	 	0.0	0	231.462736499998	231.562743799997	0.100007299999561
137869	100	149	stimuli/plant2/moss/plant_moss03.jpg             	1	2	1	plant_moss03.jpg     	plant2   	7	moss      	25	moss03      	252	alive    	1	still	0	natural 	1	n	0	0        	 	0.0	0	231.6127361	231.712751699997	0.100015599997278
138019	100	150	stimuli/animals2/pigeon/animal_pigeon04.jpg      	1	2	1	animal_pigeon04.jpg  	animals2 	1	pigeon    	28	pigeon04    	283	alive    	1	moves	1	natural 	1	n	0	0        	 	0.0	0	231.762742299998	231.862733599999	0.0999913000014203
138169	100	151	stimuli/nonmovArt/lock/nma_lock02.jpg            	1	2	1	nma_lock02.jpg       	nonmovArt	4	lock      	24	lock02      	241	not_alive	0	still	0	artefact	0	n	0	0        	 	0.0	0	231.9127443	232.012757099998	0.100012799997785
138319	100	152	stimuli/nonmovArt/headphones/nma_headphones04.jpg	1	2	1	nma_headphones04.jpg 	nonmovArt	4	headphones	18	headphones04	183	not_alive	0	still	0	artefact	0	n	0	0        	 	0.0	0	232.062759699998	232.1627414	0.0999817000010808
138469	100	153	stimuli/movArt/boat/ma_boat04.jpg                	1	2	1	ma_boat04.jpg        	movArt   	2	boat      	2	boat04      	23	not_alive	0	moves	1	artefact	0	n	0	0        	 	0.0	0	232.212753799999	232.312753799997	0.0999999999985448
138619	100	154	stimuli/movNat/waves/mn_waves09.jpg              	1	2	1	mn_waves09.jpg       	movNat   	3	waves     	38	waves09     	388	not_alive	0	moves	1	natural 	1	n	0	0        	 	0.0	0	232.3627562	232.462757699999	0.100001499999053
138769	100	155	stimuli/movNat/river/mn_river05.jpg              	1	2	1	mn_river05.jpg       	movNat   	3	river     	29	river05     	294	not_alive	0	moves	1	natural 	1	n	0	0        	 	0.0	0	232.5127627	232.612752099998	0.0999893999978667
138919	100	156	stimuli/nonmovArt/mug/nma_mug10.jpg              	1	2	1	nma_mug10.jpg        	nonmovArt	4	mug       	26	mug10       	269	not_alive	0	still	0	artefact	0	n	0	0        	 	0.0	0	232.662765099998	232.7627584	0.0999933000020974
139069	100	157	stimuli/movNat/hotspring/mn_hotspring10.jpg      	1	2	1	mn_hotspring10.jpg   	movNat   	3	hotspring 	21	hotspring10 	219	not_alive	0	moves	1	natural 	1	n	0	0        	 	0.0	0	232.812796499999	232.912761899999	0.0999654000006558
139219	100	158	stimuli/nonmovArt/headphones/nma_headphones06.jpg	1	2	1	nma_headphones06.jpg 	nonmovArt	4	headphones	18	headphones06	185	not_alive	0	still	0	artefact	0	n	0	0        	 	0.0	0	232.962772199997	233.062766899999	0.0999947000018437
139369	100	159	stimuli/nonmovArt/headphones/nma_headphones04.jpg	1	2	1	nma_headphones04.jpg 	nonmovArt	4	headphones	18	headphones04	183	not_alive	0	still	0	artefact	0	n	0	0        	 	0.0	0	233.112776099999	233.212771999999	0.0999959000000672
144136	100	160	stimuli/movArt/helicopter/ma_helicopter03.jpg    	1	3	1	ma_helicopter03.jpg  	movArt   	2	helicopter	19	helicopter03	192	not_alive	0	moves	1	artefact	0	n	0	0        	 	0.0	0	237.879575299998	237.9795815	0.100006200002099
144286	100	161	stimuli/movArt/bus/ma_bus01.jpg                  	1	3	1	ma_bus01.jpg         	movArt   	2	bus       	3	bus01       	30	not_alive	0	moves	1	artefact	0	n	0	0        	 	0.0	0	238.0295735	238.129567799999	0.0999942999987979
144436	100	162	stimuli/nonmovNat/rock/nmn_rock05.jpg            	1	3	1	nmn_rock05.jpg       	nonmovNat	5	rock      	30	rock05      	304	not_alive	0	still	0	natural 	1	n	0	0        	 	0.0	0	238.179578199997	238.279580599999	0.100002400002268
144586	100	163	stimuli/movArt/helicopter/ma_helicopter07.jpg    	1	3	1	ma_helicopter07.jpg  	movArt   	2	helicopter	19	helicopter07	196	not_alive	0	moves	1	artefact	0	n	0	0        	 	0.0	0	238.329588699999	238.429579899999	0.0999912000006589
144736	100	164	stimuli/movArt/car/ma_car09.jpg                  	1	3	1	ma_car09.jpg         	movArt   	2	car       	5	car09       	58	not_alive	0	moves	1	artefact	0	n	0	0        	 	0.0	0	238.479592199998	238.579616299998	0.100024100000155
144886	100	165	stimuli/nonmovNat/cliff/nmn_cliff02.jpg          	1	3	1	nmn_cliff02.jpg      	nonmovNat	5	cliff     	7	cliff02     	71	not_alive	0	still	0	natural 	1	n	0	0        	 	0.0	0	238.629598199997	238.729585499997	0.0999873000000662
145036	100	166	stimuli/movArt/car/ma_car09.jpg                  	1	3	1	ma_car09.jpg         	movArt   	2	car       	5	car09       	58	not_alive	0	moves	1	artefact	0	n	0	0        	 	0.0	0	238.779599699999	238.8795923	0.0999926000004052
145186	100	167	stimuli/animals2/tiger/animal_tiger10.jpg        	1	3	1	animal_tiger10.jpg   	animals2 	1	tiger     	33	tiger10     	339	alive    	1	moves	1	natural 	1	n	0	0        	 	0.0	0	238.929602799999	239.029629099998	0.100026299998717
145336	100	168	stimuli/plant/grass/plant_grass02.jpg            	1	3	1	plant_grass02.jpg    	plant    	6	grass     	17	grass02     	171	alive    	1	still	0	natural 	1	n	0	0        	 	0.0	0	239.079609299999	239.179601	0.0999917000008281
145486	100	169	stimuli/movArt/car/ma_car09.jpg                  	1	3	1	ma_car09.jpg         	movArt   	2	car       	5	car09       	58	not_alive	0	moves	1	artefact	0	n	0	0        	 	0.0	0	239.229612399999	239.329603399998	0.099990999999136
145636	100	170	stimuli/animals2/lemur/animal_lemur02.jpg        	1	3	1	animal_lemur02.jpg   	animals2 	1	lemur     	23	lemur02     	231	alive    	1	moves	1	natural 	1	n	0	0        	 	0.0	0	239.3796162	239.4796092	0.099992999999813
145786	100	171	stimuli/animals2/whale/animal_whale10.jpg        	1	3	1	animal_whale10.jpg   	animals2 	1	whale     	39	whale10     	399	alive    	1	moves	1	natural 	1	n	0	0        	 	0.0	0	239.529619899997	239.6296129	0.099993000003451
145936	100	172	stimuli/movArt/bus/ma_bus06.jpg                  	1	3	1	ma_bus06.jpg         	movArt   	2	bus       	3	bus06       	35	not_alive	0	moves	1	artefact	0	n	0	0        	 	0.0	0	239.679622899999	239.779657999999	0.100035100000241
146086	100	173	stimuli/nonmovNat/shell/nmn_shell07.jpg          	1	3	1	nmn_shell07.jpg      	nonmovNat	5	shell     	32	shell07     	326	not_alive	0	still	0	natural 	1	n	0	0        	 	0.0	0	239.8296271	239.929620499999	0.0999933999992209
146236	100	174	stimuli/animals/dolphin/animal_dolphin03.jpg     	1	3	1	animal_dolphin03.jpg 	animals  	0	dolphin   	12	dolphin03   	122	alive    	1	moves	1	natural 	1	n	0	0        	 	0.0	0	239.979630499998	240.079626699997	0.0999961999987136
146386	100	175	stimuli/nonmovNat/cliff/nmn_cliff09.jpg          	1	3	1	nmn_cliff09.jpg      	nonmovNat	5	cliff     	7	cliff09     	78	not_alive	0	still	0	natural 	1	n	0	0        	 	0.0	0	240.129634899997	240.229631599999	0.0999967000025208
146536	100	176	stimuli/animals2/whale/animal_whale07.jpg        	1	3	1	animal_whale07.jpg   	animals2 	1	whale     	39	whale07     	396	alive    	1	moves	1	natural 	1	n	0	0        	 	0.0	0	240.279642099998	240.379646699999	0.10000460000083
146686	100	177	stimuli/movArt/train/ma_train08.jpg              	1	3	1	ma_train08.jpg       	movArt   	2	train     	34	train08     	347	not_alive	0	moves	1	artefact	0	n	0	0        	 	0.0	0	240.429643699998	240.529650199998	0.100006500000745
146836	100	178	stimuli/plant/vine/plant_vine03.jpg              	1	3	1	plant_vine03.jpg     	plant    	6	vine      	36	vine03      	362	alive    	1	still	0	natural 	1	n	0	0        	 	0.0	0	240.579669399998	240.6796416	0.0999722000015026
146986	100	179	stimuli/nonmovArt/bench/nma_bench04.jpg          	1	3	1	nma_bench04.jpg      	nonmovArt	4	bench     	1	bench04     	13	not_alive	0	still	0	artefact	0	n	0	0        	 	0.0	0	240.729647599997	240.829652799999	0.10000520000176
147136	100	180	stimuli/movNat/fire/mn_fire09.jpg                	1	3	1	mn_fire09.jpg        	movNat   	3	fire      	15	fire09      	158	not_alive	0	moves	1	natural 	1	n	0	0        	 	0.0	0	240.879671899998	240.979646599997	0.099974699998711
147286	100	181	stimuli/nonmovArt/clothespeg/nma_clothespeg06.jpg	1	3	1	nma_clothespeg06.jpg 	nonmovArt	4	clothespeg	8	clothespeg06	85	not_alive	0	still	0	artefact	0	n	0	0        	 	0.0	0	241.029659599997	241.129652099997	0.0999924999996438
147436	100	182	stimuli/animals2/bee/animal_bee08.jpg            	1	3	1	animal_bee08.jpg     	animals2 	1	bee       	0	bee08       	7	alive    	1	moves	1	natural 	1	n	0	0        	 	0.0	0	241.179663799998	241.279657299998	0.0999934999999823
147586	100	183	stimuli/plant2/lemontree/plant_lemontree08.jpg   	1	3	1	plant_lemontree08.jpg	plant2   	7	lemontree 	22	lemontree08 	227	alive    	1	still	0	natural 	1	n	1	0        	 	0.0	0	241.329666899997	241.4296708	0.100003900002775
147736	100	184	stimuli/nonmovNat/shell/nmn_shell02.jpg          	1	3	1	nmn_shell02.jpg      	nonmovNat	5	shell     	32	shell02     	321	not_alive	0	still	0	natural 	1	n	0	1        	a	0.254769700000907	1	241.479686299997	241.579664299999	0.099978000002011
147886	100	185	stimuli/nonmovNat/shell/nmn_shell07.jpg          	1	3	1	nmn_shell07.jpg      	nonmovNat	5	shell     	32	shell07     	326	not_alive	0	still	0	natural 	1	n	0	0        	 	0.0	0	241.629704299998	241.729678299998	0.0999740000006568
148036	100	186	stimuli/nonmovArt/mug/nma_mug05.jpg              	1	3	1	nma_mug05.jpg        	nonmovArt	4	mug       	26	mug05       	264	not_alive	0	still	0	artefact	0	n	0	0        	 	0.0	0	241.779679299998	241.879686599997	0.100007299999561
148186	100	187	stimuli/nonmovArt/clothespeg/nma_clothespeg03.jpg	1	3	1	nma_clothespeg03.jpg 	nonmovArt	4	clothespeg	8	clothespeg03	82	not_alive	0	still	0	artefact	0	n	0	0        	 	0.0	0	241.929697099997	242.029675799997	0.0999787000000652
148336	100	188	stimuli/animals2/tiger/animal_tiger07.jpg        	1	3	1	animal_tiger07.jpg   	animals2 	1	tiger     	33	tiger07     	336	alive    	1	moves	1	natural 	1	n	0	0        	 	0.0	0	242.0796882	242.179680699999	0.0999924999996438
148486	100	189	stimuli/plant/cactus/plant_cactus02.jpg          	1	3	1	plant_cactus02.jpg   	plant    	6	cactus    	4	cactus02    	41	alive    	1	still	0	natural 	1	n	0	0        	 	0.0	0	242.229697399998	242.329685299999	0.0999879000009969
148636	100	190	stimuli/animals/dolphin/animal_dolphin10.jpg     	1	3	1	animal_dolphin10.jpg 	animals  	0	dolphin   	12	dolphin10   	129	alive    	1	moves	1	natural 	1	n	0	0        	 	0.0	0	242.379708099998	242.479688599997	0.0999804999992193
148786	100	191	stimuli/animals2/bee/animal_bee07.jpg            	1	3	1	animal_bee07.jpg     	animals2 	1	bee       	0	bee07       	6	alive    	1	moves	1	natural 	1	n	0	0        	 	0.0	0	242.529698899998	242.629695599997	0.0999966999988828
148936	100	192	stimuli/movNat/waterfall/mn_waterfall04.jpg      	1	3	1	mn_waterfall04.jpg   	movNat   	3	waterfall 	37	waterfall04 	373	not_alive	0	moves	1	natural 	1	n	0	0        	 	0.0	0	242.679701699999	242.779696099999	0.0999943999995594
149086	100	193	stimuli/plant2/fern/plant_fern08.jpg             	1	3	1	plant_fern08.jpg     	plant2   	7	fern      	14	fern08      	147	alive    	1	still	0	natural 	1	n	0	0        	 	0.0	0	242.829707099998	242.9296985	0.0999914000021818
149236	100	194	stimuli/plant/flower/plant_flower04.jpg          	1	3	1	plant_flower04.jpg   	plant    	6	flower    	16	flower04    	163	alive    	1	still	0	natural 	1	n	0	0        	 	0.0	0	242.9797119	243.079715899999	0.100003999999899
149386	100	195	stimuli/nonmovNat/sand/nmn_sand10.jpg            	1	3	1	nmn_sand10.jpg       	nonmovNat	5	sand      	31	sand10      	319	not_alive	0	still	0	natural 	1	n	0	0        	 	0.0	0	243.129724299997	243.2297072	0.0999829000029422
149536	100	196	stimuli/animals/cat/animal_cat10.jpg             	1	3	1	animal_cat10.jpg     	animals  	0	cat       	6	cat10       	69	alive    	1	moves	1	natural 	1	n	0	0        	 	0.0	0	243.279730499999	243.379725499999	0.0999950000004901
149686	100	197	stimuli/plant2/clover/plant_clover04.jpg         	1	3	1	plant_clover04.jpg   	plant2   	7	clover    	9	clover04    	93	alive    	1	still	0	natural 	1	n	0	0        	 	0.0	0	243.429735499998	243.529760599999	0.100025100000494
149836	100	198	stimuli/plant/tree/plant_tree03.jpg              	1	3	1	plant_tree03.jpg     	plant    	6	tree      	35	tree03      	352	alive    	1	still	0	natural 	1	n	0	0        	 	0.0	0	243.579737	243.679733299999	0.099996299999475
149986	100	199	stimuli/animals/eagle/animal_eagle06.jpg         	1	3	1	animal_eagle06.jpg   	animals  	0	eagle     	13	eagle06     	135	alive    	1	moves	1	natural 	1	n	0	0        	 	0.0	0	243.729743699998	243.829745299998	0.100001599999814
150136	100	200	stimuli/animals/dog/animal_dog06.jpg             	1	3	1	animal_dog06.jpg     	animals  	0	dog       	11	dog06       	115	alive    	1	moves	1	natural 	1	n	0	0        	 	0.0	0	243.879746699997	243.979738499998	0.0999918000015896
150286	100	201	stimuli/animals/cat/animal_cat08.jpg             	1	3	1	animal_cat08.jpg     	animals  	0	cat       	6	cat08       	67	alive    	1	moves	1	natural 	1	n	0	0        	 	0.0	0	244.029751599999	244.129744499998	0.0999928999990516
150436	100	202	stimuli/nonmovArt/mug/nma_mug02.jpg              	1	3	1	nma_mug02.jpg        	nonmovArt	4	mug       	26	mug02       	261	not_alive	0	still	0	artefact	0	n	0	0        	 	0.0	0	244.179753299999	244.279750099999	0.0999967999996443
150586	100	203	stimuli/nonmovNat/crystal/nmn_crystal10.jpg      	1	3	1	nmn_crystal10.jpg    	nonmovNat	5	crystal   	10	crystal10   	109	not_alive	0	still	0	natural 	1	n	0	0        	 	0.0	0	244.329758899999	244.4297563	0.099997400000575
150736	100	204	stimuli/plant2/moss/plant_moss07.jpg             	1	3	1	plant_moss07.jpg     	plant2   	7	moss      	25	moss07      	256	alive    	1	still	0	natural 	1	n	0	0        	 	0.0	0	244.479766699998	244.579738799999	0.0999721000007412
150886	100	205	stimuli/movNat/fire/mn_fire09.jpg                	1	3	1	mn_fire09.jpg        	movNat   	3	fire      	15	fire09      	158	not_alive	0	moves	1	natural 	1	n	0	0        	 	0.0	0	244.6297662	244.7297588	0.0999926000004052
151036	100	206	stimuli/plant2/moss/plant_moss04.jpg             	1	3	1	plant_moss04.jpg     	plant2   	7	moss      	25	moss04      	253	alive    	1	still	0	natural 	1	n	0	0        	 	0.0	0	244.779770999998	244.879765399997	0.0999943999995594
151186	100	207	stimuli/animals2/pigeon/animal_pigeon10.jpg      	1	3	1	animal_pigeon10.jpg  	animals2 	1	pigeon    	28	pigeon10    	289	alive    	1	moves	1	natural 	1	n	0	0        	 	0.0	0	244.9297749	245.0297732	0.0999983000001521
151336	100	208	stimuli/animals/horse/animal_horse09.jpg         	1	3	1	animal_horse09.jpg   	animals  	0	horse     	20	horse09     	208	alive    	1	moves	1	natural 	1	n	0	0        	 	0.0	0	245.07978	245.179771899999	0.099991899998713
151486	100	209	stimuli/nonmovNat/sand/nmn_sand01.jpg            	1	3	1	nmn_sand01.jpg       	nonmovNat	5	sand      	31	sand01      	310	not_alive	0	still	0	natural 	1	n	0	0        	 	0.0	0	245.229780999998	245.32978	0.0999990000018442
151636	100	210	stimuli/plant2/fern/plant_fern04.jpg             	1	3	1	plant_fern04.jpg     	plant2   	7	fern      	14	fern04      	143	alive    	1	still	0	natural 	1	n	0	0        	 	0.0	0	245.3797772	245.479778199999	0.100000999998883
151786	100	211	stimuli/nonmovNat/rock/nmn_rock03.jpg            	1	3	1	nmn_rock03.jpg       	nonmovNat	5	rock      	30	rock03      	302	not_alive	0	still	0	natural 	1	n	0	0        	 	0.0	0	245.529796699997	245.629783099997	0.0999864000004891
151936	100	212	stimuli/animals/eagle/animal_eagle05.jpg         	1	3	1	animal_eagle05.jpg   	animals  	0	eagle     	13	eagle05     	134	alive    	1	moves	1	natural 	1	n	0	0        	 	0.0	0	245.679803999999	245.779788399999	0.099984399999812
152086	100	213	stimuli/animals2/whale/animal_whale10.jpg        	1	3	1	animal_whale10.jpg   	animals2 	1	whale     	39	whale10     	399	alive    	1	moves	1	natural 	1	n	0	0        	 	0.0	0	245.829797399998	245.929801799997	0.100004399999307
152236	100	214	stimuli/plant/flower/plant_flower03.jpg          	1	3	1	plant_flower03.jpg   	plant    	6	flower    	16	flower03    	162	alive    	1	still	0	natural 	1	n	1	0        	 	0.0	0	245.979806199997	246.079784899997	0.0999787000000652
152386	100	215	stimuli/movArt/bus/ma_bus07.jpg                  	1	3	1	ma_bus07.jpg         	movArt   	2	bus       	3	bus07       	36	not_alive	0	moves	1	artefact	0	n	1	0        	 	0.0	0	246.129794099998	246.2297865	0.0999924000025203
152536	100	216	stimuli/animals/cat/animal_cat02.jpg             	1	3	1	animal_cat02.jpg     	animals  	0	cat       	6	cat02       	61	alive    	1	moves	1	natural 	1	n	0	1        	a	0.15019250000114	1	246.279801499997	246.3797916	0.0999901000031969
152686	100	217	stimuli/movNat/hotspring/mn_hotspring03.jpg      	1	3	1	mn_hotspring03.jpg   	movNat   	3	hotspring 	21	hotspring03 	212	not_alive	0	moves	1	natural 	1	n	0	0        	 	0.0	0	246.429801499999	246.529798399999	0.0999969000004057
152836	100	218	stimuli/animals2/bee/animal_bee01.jpg            	1	3	1	animal_bee01.jpg     	animals2 	1	bee       	0	bee01       	0	alive    	1	moves	1	natural 	1	n	0	0        	 	0.0	0	246.5798359	246.6798022	0.0999663000002329
152986	100	219	stimuli/nonmovNat/rock/nmn_rock04.jpg            	1	3	1	nmn_rock04.jpg       	nonmovNat	5	rock      	30	rock04      	303	not_alive	0	still	0	natural 	1	n	0	0        	 	0.0	0	246.729807699998	246.829804199999	0.0999965000009979
153136	100	220	stimuli/plant2/palmtree/plant_palmtree09.jpg     	1	3	1	plant_palmtree09.jpg 	plant2   	7	palmtree  	27	palmtree09  	278	alive    	1	still	0	natural 	1	n	0	0        	 	0.0	0	246.879813	246.979807399999	0.0999943999995594
153286	100	221	stimuli/plant2/clover/plant_clover01.jpg         	1	3	1	plant_clover01.jpg   	plant2   	7	clover    	9	clover01    	90	alive    	1	still	0	natural 	1	n	0	0        	 	0.0	0	247.029823499997	247.1298107	0.0999872000029427
153436	100	222	stimuli/plant2/lemontree/plant_lemontree09.jpg   	1	3	1	plant_lemontree09.jpg	plant2   	7	lemontree 	22	lemontree09 	228	alive    	1	still	0	natural 	1	n	0	0        	 	0.0	0	247.179820399997	247.279814899997	0.0999945000003208
153586	100	223	stimuli/movNat/hotspring/mn_hotspring05.jpg      	1	3	1	mn_hotspring05.jpg   	movNat   	3	hotspring 	21	hotspring05 	214	not_alive	0	moves	1	natural 	1	n	0	0        	 	0.0	0	247.3298254	247.429819099998	0.0999936999978672
153736	100	224	stimuli/movNat/fire/mn_fire06.jpg                	1	3	1	mn_fire06.jpg        	movNat   	3	fire      	15	fire06      	155	not_alive	0	moves	1	natural 	1	n	0	0        	 	0.0	0	247.479829299998	247.579823699998	0.0999943999995594
153886	100	225	stimuli/plant2/lemontree/plant_lemontree10.jpg   	1	3	1	plant_lemontree10.jpg	plant2   	7	lemontree 	22	lemontree10 	229	alive    	1	still	0	natural 	1	n	0	0        	 	0.0	0	247.629833699997	247.729824999998	0.0999913000014203
154036	100	226	stimuli/animals2/pigeon/animal_pigeon05.jpg      	1	3	1	animal_pigeon05.jpg  	animals2 	1	pigeon    	28	pigeon05    	284	alive    	1	moves	1	natural 	1	n	0	0        	 	0.0	0	247.7798367	247.8798336	0.0999969000004057
154186	100	227	stimuli/nonmovArt/lock/nma_lock08.jpg            	1	3	1	nma_lock08.jpg       	nonmovArt	4	lock      	24	lock08      	247	not_alive	0	still	0	artefact	0	n	0	0        	 	0.0	0	247.9298409	248.0298344	0.0999934999999823
154336	100	228	stimuli/plant2/clover/plant_clover08.jpg         	1	3	1	plant_clover08.jpg   	plant2   	7	clover    	9	clover08    	97	alive    	1	still	0	natural 	1	n	0	0        	 	0.0	0	248.079846299999	248.1798389	0.0999926000004052
154486	100	229	stimuli/nonmovNat/cliff/nmn_cliff03.jpg          	1	3	1	nmn_cliff03.jpg      	nonmovNat	5	cliff     	7	cliff03     	72	not_alive	0	still	0	natural 	1	n	0	0        	 	0.0	0	248.229850599997	248.3298454	0.0999948000026052
154637	100	230	stimuli/movNat/waterfall/mn_waterfall01.jpg      	1	3	1	mn_waterfall01.jpg   	movNat   	3	waterfall 	37	waterfall01 	370	not_alive	0	moves	1	natural 	1	n	0	0        	 	0.0	0	248.379853599999	248.479846499999	0.0999928999990516
154787	100	231	stimuli/movArt/train/ma_train05.jpg              	1	3	1	ma_train05.jpg       	movArt   	2	train     	34	train05     	344	not_alive	0	moves	1	artefact	0	n	0	0        	 	0.0	0	248.5298664	248.629847799999	0.0999813999987964
154937	100	232	stimuli/plant/vine/plant_vine03.jpg              	1	3	1	plant_vine03.jpg     	plant    	6	vine      	36	vine03      	362	alive    	1	still	0	natural 	1	n	0	0        	 	0.0	0	248.679861599998	248.779863799999	0.100002200000745
155087	100	233	stimuli/plant2/palmtree/plant_palmtree06.jpg     	1	3	1	plant_palmtree06.jpg 	plant2   	7	palmtree  	27	palmtree06  	275	alive    	1	still	0	natural 	1	n	0	0        	 	0.0	0	248.829868999997	248.929860299999	0.0999913000014203
155237	100	234	stimuli/movArt/boat/ma_boat06.jpg                	1	3	1	ma_boat06.jpg        	movArt   	2	boat      	2	boat06      	25	not_alive	0	moves	1	artefact	0	n	0	0        	 	0.0	0	248.979868799997	249.079862999999	0.0999942000016745
155387	100	235	stimuli/animals/dog/animal_dog01.jpg             	1	3	1	animal_dog01.jpg     	animals  	0	dog       	11	dog01       	110	alive    	1	moves	1	natural 	1	n	0	0        	 	0.0	0	249.129873799997	249.229866399997	0.0999926000004052
155537	100	236	stimuli/nonmovArt/bench/nma_bench01.jpg          	1	3	1	nma_bench01.jpg      	nonmovArt	4	bench     	1	bench01     	10	not_alive	0	still	0	artefact	0	n	0	0        	 	0.0	0	249.279876999997	249.379895599999	0.100018600001931
155687	100	237	stimuli/plant/grass/plant_grass04.jpg            	1	3	1	plant_grass04.jpg    	plant    	6	grass     	17	grass04     	173	alive    	1	still	0	natural 	1	n	0	0        	 	0.0	0	249.4298948	249.529874199998	0.0999793999981193
155837	100	238	stimuli/movArt/helicopter/ma_helicopter09.jpg    	1	3	1	ma_helicopter09.jpg  	movArt   	2	helicopter	19	helicopter09	198	not_alive	0	moves	1	artefact	0	n	0	0        	 	0.0	0	249.579885399999	249.679880199998	0.0999947999989672
155987	100	239	stimuli/movArt/train/ma_train06.jpg              	1	3	1	ma_train06.jpg       	movArt   	2	train     	34	train06     	345	not_alive	0	moves	1	artefact	0	n	0	0        	 	0.0	0	249.729890499999	249.829882999998	0.0999924999996438
160587	100	240	stimuli/animals/dog/animal_dog01.jpg             	1	4	1	animal_dog01.jpg     	animals  	0	dog       	11	dog01       	110	alive    	1	moves	1	natural 	1	n	0	0        	 	0.0	0	254.330015699998	254.430005999999	0.0999903000010818
160737	100	241	stimuli/nonmovArt/clothespeg/nma_clothespeg02.jpg	1	4	1	nma_clothespeg02.jpg 	nonmovArt	4	clothespeg	8	clothespeg02	81	not_alive	0	still	0	artefact	0	n	0	0        	 	0.0	0	254.480013499997	254.580011499998	0.0999980000015057
160887	100	242	stimuli/movNat/fire/mn_fire08.jpg                	1	4	1	mn_fire08.jpg        	movNat   	3	fire      	15	fire08      	157	not_alive	0	moves	1	natural 	1	n	0	0        	 	0.0	0	254.630019499997	254.730012	0.0999925000032818
161037	100	243	stimuli/nonmovArt/clothespeg/nma_clothespeg09.jpg	1	4	1	nma_clothespeg09.jpg 	nonmovArt	4	clothespeg	8	clothespeg09	88	not_alive	0	still	0	artefact	0	n	0	0        	 	0.0	0	254.7800235	254.880015299997	0.0999917999979516
161187	100	244	stimuli/animals/eagle/animal_eagle03.jpg         	1	4	1	animal_eagle03.jpg   	animals  	0	eagle     	13	eagle03     	132	alive    	1	moves	1	natural 	1	n	0	0        	 	0.0	0	254.9300277	255.030018699999	0.099990999999136
161337	100	245	stimuli/plant2/moss/plant_moss10.jpg             	1	4	1	plant_moss10.jpg     	plant2   	7	moss      	25	moss10      	259	alive    	1	still	0	natural 	1	n	0	0        	 	0.0	0	255.0800332	255.180050799998	0.100017599997955
161487	100	246	stimuli/movArt/bus/ma_bus06.jpg                  	1	4	1	ma_bus06.jpg         	movArt   	2	bus       	3	bus06       	35	not_alive	0	moves	1	artefact	0	n	0	0        	 	0.0	0	255.2300383	255.3300313	0.099992999999813
161637	100	247	stimuli/animals/dog/animal_dog03.jpg             	1	4	1	animal_dog03.jpg     	animals  	0	dog       	11	dog03       	112	alive    	1	moves	1	natural 	1	n	0	0        	 	0.0	0	255.380040199998	255.4800368	0.0999966000017594
161787	100	248	stimuli/plant/vine/plant_vine06.jpg              	1	4	1	plant_vine06.jpg     	plant    	6	vine      	36	vine06      	365	alive    	1	still	0	natural 	1	n	0	0        	 	0.0	0	255.530043699997	255.630036999999	0.0999933000020974
161937	100	249	stimuli/plant2/palmtree/plant_palmtree09.jpg     	1	4	1	plant_palmtree09.jpg 	plant2   	7	palmtree  	27	palmtree09  	278	alive    	1	still	0	natural 	1	n	0	0        	 	0.0	0	255.680047399997	255.780071999998	0.100024600000324
162087	100	250	stimuli/nonmovNat/sand/nmn_sand05.jpg            	1	4	1	nmn_sand05.jpg       	nonmovNat	5	sand      	31	sand05      	314	not_alive	0	still	0	natural 	1	n	0	0        	 	0.0	0	255.830049	255.930046499998	0.0999974999976985
162237	100	251	stimuli/animals2/bee/animal_bee03.jpg            	1	4	1	animal_bee03.jpg     	animals2 	1	bee       	0	bee03       	2	alive    	1	moves	1	natural 	1	n	0	0        	 	0.0	0	255.980052799998	256.080050599998	0.0999977999999828
162387	100	252	stimuli/plant2/palmtree/plant_palmtree05.jpg     	1	4	1	plant_palmtree05.jpg 	plant2   	7	palmtree  	27	palmtree05  	274	alive    	1	still	0	natural 	1	n	0	0        	 	0.0	0	256.130059699997	256.230054599997	0.0999948999997287
162537	100	253	stimuli/animals2/whale/animal_whale04.jpg        	1	4	1	animal_whale04.jpg   	animals2 	1	whale     	39	whale04     	393	alive    	1	moves	1	natural 	1	n	0	0        	 	0.0	0	256.2800632	256.380056099999	0.0999928999990516
162687	100	254	stimuli/nonmovNat/cliff/nmn_cliff03.jpg          	1	4	1	nmn_cliff03.jpg      	nonmovNat	5	cliff     	7	cliff03     	72	not_alive	0	still	0	natural 	1	n	0	0        	 	0.0	0	256.430069499998	256.530061899997	0.0999923999988823
162837	100	255	stimuli/plant2/moss/plant_moss10.jpg             	1	4	1	plant_moss10.jpg     	plant2   	7	moss      	25	moss10      	259	alive    	1	still	0	natural 	1	n	0	0        	 	0.0	0	256.580072599998	256.680063899999	0.0999913000014203
162987	100	256	stimuli/animals/cat/animal_cat03.jpg             	1	4	1	animal_cat03.jpg     	animals  	0	cat       	6	cat03       	62	alive    	1	moves	1	natural 	1	n	0	0        	 	0.0	0	256.730076799999	256.830067399998	0.0999905999997282
163137	100	257	stimuli/movNat/waves/mn_waves08.jpg              	1	4	1	mn_waves08.jpg       	movNat   	3	waves     	38	waves08     	387	not_alive	0	moves	1	natural 	1	n	0	0        	 	0.0	0	256.880079499999	256.980071099999	0.0999916000000667
163287	100	258	stimuli/movArt/train/ma_train02.jpg              	1	4	1	ma_train02.jpg       	movArt   	2	train     	34	train02     	341	not_alive	0	moves	1	artefact	0	n	0	0        	 	0.0	0	257.030081599998	257.130076199999	0.0999946000010823
163437	100	259	stimuli/animals/eagle/animal_eagle05.jpg         	1	4	1	animal_eagle05.jpg   	animals  	0	eagle     	13	eagle05     	134	alive    	1	moves	1	natural 	1	n	0	0        	 	0.0	0	257.180086499997	257.2800794	0.0999929000026896
163587	100	260	stimuli/movNat/river/mn_river07.jpg              	1	4	1	mn_river07.jpg       	movNat   	3	river     	29	river07     	296	not_alive	0	moves	1	natural 	1	n	0	0        	 	0.0	0	257.330092	257.430084399999	0.0999923999988823
163737	100	261	stimuli/movArt/boat/ma_boat05.jpg                	1	4	1	ma_boat05.jpg        	movArt   	2	boat      	2	boat05      	24	not_alive	0	moves	1	artefact	0	n	0	0        	 	0.0	0	257.480094799997	257.5800867	0.099991900002351
163887	100	262	stimuli/plant2/clover/plant_clover05.jpg         	1	4	1	plant_clover05.jpg   	plant2   	7	clover    	9	clover05    	94	alive    	1	still	0	natural 	1	n	0	0        	 	0.0	0	257.630095799999	257.730087799999	0.0999919999994745
164037	100	263	stimuli/nonmovArt/lock/nma_lock09.jpg            	1	4	1	nma_lock09.jpg       	nonmovArt	4	lock      	24	lock09      	248	not_alive	0	still	0	artefact	0	n	0	0        	 	0.0	0	257.780102099998	257.880118899997	0.100016799999139
164187	100	264	stimuli/nonmovNat/shell/nmn_shell08.jpg          	1	4	1	nmn_shell08.jpg      	nonmovNat	5	shell     	32	shell08     	327	not_alive	0	still	0	natural 	1	n	0	0        	 	0.0	0	257.930116699998	258.030112099997	0.0999953999998979
164337	100	265	stimuli/movArt/helicopter/ma_helicopter06.jpg    	1	4	1	ma_helicopter06.jpg  	movArt   	2	helicopter	19	helicopter06	195	not_alive	0	moves	1	artefact	0	n	0	0        	 	0.0	0	258.0801087	258.180104299998	0.0999955999977828
164487	100	266	stimuli/movNat/waterfall/mn_waterfall01.jpg      	1	4	1	mn_waterfall01.jpg   	movNat   	3	waterfall 	37	waterfall01 	370	not_alive	0	moves	1	natural 	1	n	0	0        	 	0.0	0	258.230112899997	258.330106099998	0.0999932000013359
164637	100	267	stimuli/plant2/fern/plant_fern01.jpg             	1	4	1	plant_fern01.jpg     	plant2   	7	fern      	14	fern01      	140	alive    	1	still	0	natural 	1	n	0	0        	 	0.0	0	258.380117699999	258.480113199999	0.0999955000006594
164787	100	268	stimuli/movNat/hotspring/mn_hotspring04.jpg      	1	4	1	mn_hotspring04.jpg   	movNat   	3	hotspring 	21	hotspring04 	213	not_alive	0	moves	1	natural 	1	n	0	0        	 	0.0	0	258.530120399999	258.630115	0.0999946000010823
164937	100	269	stimuli/nonmovArt/headphones/nma_headphones04.jpg	1	4	1	nma_headphones04.jpg 	nonmovArt	4	headphones	18	headphones04	183	not_alive	0	still	0	artefact	0	n	0	0        	 	0.0	0	258.680125999999	258.780118799998	0.0999927999982901
165087	100	270	stimuli/plant2/fern/plant_fern09.jpg             	1	4	1	plant_fern09.jpg     	plant2   	7	fern      	14	fern09      	148	alive    	1	still	0	natural 	1	n	0	0        	 	0.0	0	258.830124199998	258.930125699997	0.100001499999053
165237	100	271	stimuli/movNat/waves/mn_waves07.jpg              	1	4	1	mn_waves07.jpg       	movNat   	3	waves     	38	waves07     	386	not_alive	0	moves	1	natural 	1	n	0	0        	 	0.0	0	258.980134499998	259.0801278	0.0999933000020974
165387	100	272	stimuli/animals2/tiger/animal_tiger05.jpg        	1	4	1	animal_tiger05.jpg   	animals2 	1	tiger     	33	tiger05     	334	alive    	1	moves	1	natural 	1	n	0	0        	 	0.0	0	259.1301384	259.230131299999	0.0999928999990516
165537	100	273	stimuli/animals/dolphin/animal_dolphin08.jpg     	1	4	1	animal_dolphin08.jpg 	animals  	0	dolphin   	12	dolphin08   	127	alive    	1	moves	1	natural 	1	n	0	0        	 	0.0	0	259.280141199997	259.3801441	0.100002900002437
165687	100	274	stimuli/plant/flower/plant_flower08.jpg          	1	4	1	plant_flower08.jpg   	plant    	6	flower    	16	flower08    	167	alive    	1	still	0	natural 	1	n	0	0        	 	0.0	0	259.430149599997	259.5301406	0.0999910000027739
165837	100	275	stimuli/plant2/clover/plant_clover01.jpg         	1	4	1	plant_clover01.jpg   	plant2   	7	clover    	9	clover01    	90	alive    	1	still	0	natural 	1	n	0	0        	 	0.0	0	259.5801517	259.6801461	0.0999943999995594
165987	100	276	stimuli/animals/horse/animal_horse03.jpg         	1	4	1	animal_horse03.jpg   	animals  	0	horse     	20	horse03     	202	alive    	1	moves	1	natural 	1	n	0	0        	 	0.0	0	259.730149999999	259.8301483	0.0999983000001521
166137	100	277	stimuli/animals2/pigeon/animal_pigeon08.jpg      	1	4	1	animal_pigeon08.jpg  	animals2 	1	pigeon    	28	pigeon08    	287	alive    	1	moves	1	natural 	1	n	0	0        	 	0.0	0	259.8801599	259.980160499999	0.100000599999476
166287	100	278	stimuli/nonmovArt/headphones/nma_headphones05.jpg	1	4	1	nma_headphones05.jpg 	nonmovArt	4	headphones	18	headphones05	184	not_alive	0	still	0	artefact	0	n	0	0        	 	0.0	0	260.030175299999	260.130155499999	0.099980200000573
166437	100	279	stimuli/plant2/clover/plant_clover04.jpg         	1	4	1	plant_clover04.jpg   	plant2   	7	clover    	9	clover04    	93	alive    	1	still	0	natural 	1	n	0	0        	 	0.0	0	260.180165899997	260.280161999999	0.0999961000015901
166587	100	280	stimuli/animals2/tiger/animal_tiger10.jpg        	1	4	1	animal_tiger10.jpg   	animals2 	1	tiger     	33	tiger10     	339	alive    	1	moves	1	natural 	1	n	0	0        	 	0.0	0	260.3301684	260.430162299999	0.0999938999993901
166737	100	281	stimuli/movNat/fire/mn_fire03.jpg                	1	4	1	mn_fire03.jpg        	movNat   	3	fire      	15	fire03      	152	not_alive	0	moves	1	natural 	1	n	1	0        	 	0.0	0	260.480174	260.5801675	0.0999934999999823
166887	100	282	stimuli/nonmovNat/crystal/nmn_crystal05.jpg      	1	4	1	nmn_crystal05.jpg    	nonmovNat	5	crystal   	10	crystal05   	104	not_alive	0	still	0	natural 	1	n	0	0        	 	0.0	0	260.6301771	260.730169099999	0.0999919999994745
167037	100	283	stimuli/animals2/whale/animal_whale09.jpg        	1	4	1	animal_whale09.jpg   	animals2 	1	whale     	39	whale09     	398	alive    	1	moves	1	natural 	1	n	0	1        	f	0.292171699999017	1	260.7801812	260.880174499998	0.0999932999984594
167187	100	284	stimuli/movArt/helicopter/ma_helicopter09.jpg    	1	4	1	ma_helicopter09.jpg  	movArt   	2	helicopter	19	helicopter09	198	not_alive	0	moves	1	artefact	0	n	1	0        	 	0.0	0	260.930185399997	261.030182899998	0.0999975000013364
167337	100	285	stimuli/plant/grass/plant_grass05.jpg            	1	4	1	plant_grass05.jpg    	plant    	6	grass     	17	grass05     	174	alive    	1	still	0	natural 	1	n	0	0        	 	0.0	0	261.080189599998	261.180185599998	0.0999960000008286
167487	100	286	stimuli/movNat/waterfall/mn_waterfall10.jpg      	1	4	1	mn_waterfall10.jpg   	movNat   	3	waterfall 	37	waterfall10 	379	not_alive	0	moves	1	natural 	1	n	0	0        	 	0.0	0	261.230193399999	261.330187199997	0.0999937999986287
167637	100	287	stimuli/animals2/pigeon/animal_pigeon05.jpg      	1	4	1	animal_pigeon05.jpg  	animals2 	1	pigeon    	28	pigeon05    	284	alive    	1	moves	1	natural 	1	n	0	0        	 	0.0	0	261.380244099997	261.480195199998	0.0999511000009079
167787	100	288	stimuli/animals/dolphin/animal_dolphin02.jpg     	1	4	1	animal_dolphin02.jpg 	animals  	0	dolphin   	12	dolphin02   	121	alive    	1	moves	1	natural 	1	n	0	0        	 	0.0	0	261.530201699999	261.6301929	0.0999912000006589
167937	100	289	stimuli/nonmovNat/crystal/nmn_crystal06.jpg      	1	4	1	nmn_crystal06.jpg    	nonmovNat	5	crystal   	10	crystal06   	105	not_alive	0	still	0	natural 	1	n	0	0        	 	0.0	0	261.6802049	261.780201099999	0.0999961999987136
168087	100	290	stimuli/nonmovNat/cliff/nmn_cliff01.jpg          	1	4	1	nmn_cliff01.jpg      	nonmovNat	5	cliff     	7	cliff01     	70	not_alive	0	still	0	natural 	1	n	0	0        	 	0.0	0	261.8302195	261.930204099997	0.0999845999976969
168237	100	291	stimuli/plant/tree/plant_tree09.jpg              	1	4	1	plant_tree09.jpg     	plant    	6	tree      	35	tree09      	358	alive    	1	still	0	natural 	1	n	0	0        	 	0.0	0	261.980214499999	262.0802071	0.0999926000004052
168387	100	292	stimuli/animals2/bee/animal_bee08.jpg            	1	4	1	animal_bee08.jpg     	animals2 	1	bee       	0	bee08       	7	alive    	1	moves	1	natural 	1	n	0	0        	 	0.0	0	262.130232	262.230221499998	0.0999894999986282
168537	100	293	stimuli/plant/vine/plant_vine10.jpg              	1	4	1	plant_vine10.jpg     	plant    	6	vine      	36	vine10      	369	alive    	1	still	0	natural 	1	n	0	0        	 	0.0	0	262.280223799997	262.380217499998	0.0999937000015052
168687	100	294	stimuli/nonmovNat/cliff/nmn_cliff05.jpg          	1	4	1	nmn_cliff05.jpg      	nonmovNat	5	cliff     	7	cliff05     	74	not_alive	0	still	0	natural 	1	n	0	0        	 	0.0	0	262.430226299999	262.530217399999	0.0999910999998974
168837	100	295	stimuli/animals2/lemur/animal_lemur09.jpg        	1	4	1	animal_lemur09.jpg   	animals2 	1	lemur     	23	lemur09     	238	alive    	1	moves	1	natural 	1	n	0	0        	 	0.0	0	262.58023	262.680234799998	0.100004799998715
168987	100	296	stimuli/plant2/lemontree/plant_lemontree02.jpg   	1	4	1	plant_lemontree02.jpg	plant2   	7	lemontree 	22	lemontree02 	221	alive    	1	still	0	natural 	1	n	0	0        	 	0.0	0	262.7302318	262.830225999998	0.0999941999980365
169137	100	297	stimuli/nonmovArt/mug/nma_mug02.jpg              	1	4	1	nma_mug02.jpg        	nonmovArt	4	mug       	26	mug02       	261	not_alive	0	still	0	artefact	0	n	0	0        	 	0.0	0	262.880237499998	262.980230699999	0.0999932000013359
169287	100	298	stimuli/nonmovArt/headphones/nma_headphones10.jpg	1	4	1	nma_headphones10.jpg 	nonmovArt	4	headphones	18	headphones10	189	not_alive	0	still	0	artefact	0	n	0	0        	 	0.0	0	263.030243699999	263.130237399997	0.0999936999978672
169437	100	299	stimuli/movNat/waves/mn_waves04.jpg              	1	4	1	mn_waves04.jpg       	movNat   	3	waves     	38	waves04     	383	not_alive	0	moves	1	natural 	1	n	0	0        	 	0.0	0	263.180248499997	263.280238899999	0.0999904000018432
169587	100	300	stimuli/nonmovArt/mug/nma_mug07.jpg              	1	4	1	nma_mug07.jpg        	nonmovArt	4	mug       	26	mug07       	266	not_alive	0	still	0	artefact	0	n	0	0        	 	0.0	0	263.330249099999	263.430244399999	0.0999952999991365
169737	100	301	stimuli/nonmovNat/rock/nmn_rock03.jpg            	1	4	1	nmn_rock03.jpg       	nonmovNat	5	rock      	30	rock03      	302	not_alive	0	still	0	natural 	1	n	0	0        	 	0.0	0	263.480254899998	263.580245999998	0.0999910999998974
169887	100	302	stimuli/animals/cat/animal_cat09.jpg             	1	4	1	animal_cat09.jpg     	animals  	0	cat       	6	cat09       	68	alive    	1	moves	1	natural 	1	n	0	0        	 	0.0	0	263.630269999998	263.730248299998	0.0999783000006573
170037	100	303	stimuli/nonmovNat/rock/nmn_rock09.jpg            	1	4	1	nmn_rock09.jpg       	nonmovNat	5	rock      	30	rock09      	308	not_alive	0	still	0	natural 	1	n	0	0        	 	0.0	0	263.780282699998	263.8802545	0.0999718000020948
170187	100	304	stimuli/animals2/pigeon/animal_pigeon07.jpg      	1	4	1	animal_pigeon07.jpg  	animals2 	1	pigeon    	28	pigeon07    	286	alive    	1	moves	1	natural 	1	n	1	0        	 	0.0	0	263.9302661	264.030259499999	0.0999933999992209
170337	100	305	stimuli/plant2/moss/plant_moss06.jpg             	1	4	1	plant_moss06.jpg     	plant2   	7	moss      	25	moss06      	255	alive    	1	still	0	natural 	1	n	1	0        	 	0.0	0	264.080268199999	264.180262599999	0.0999943999995594
170487	100	306	stimuli/movNat/waterfall/mn_waterfall02.jpg      	1	4	1	mn_waterfall02.jpg   	movNat   	3	waterfall 	37	waterfall02 	371	not_alive	0	moves	1	natural 	1	n	0	1        	f	0.241977899997437	1	264.230274599999	264.330268499998	0.0999938999993901
170637	100	307	stimuli/nonmovNat/rock/nmn_rock08.jpg            	1	4	1	nmn_rock08.jpg       	nonmovNat	5	rock      	30	rock08      	307	not_alive	0	still	0	natural 	1	n	0	0        	 	0.0	0	264.3802793	264.480270699998	0.0999913999985438
170787	100	308	stimuli/nonmovNat/crystal/nmn_crystal02.jpg      	1	4	1	nmn_crystal02.jpg    	nonmovNat	5	crystal   	10	crystal02   	101	not_alive	0	still	0	natural 	1	n	0	0        	 	0.0	0	264.530285299999	264.630277099997	0.0999917999979516
170937	100	309	stimuli/movNat/fire/mn_fire02.jpg                	1	4	1	mn_fire02.jpg        	movNat   	3	fire      	15	fire02      	151	not_alive	0	moves	1	natural 	1	n	0	0        	 	0.0	0	264.680286299998	264.780279999999	0.0999937000015052
171087	100	310	stimuli/movArt/car/ma_car06.jpg                  	1	4	1	ma_car06.jpg         	movArt   	2	car       	5	car06       	55	not_alive	0	moves	1	artefact	0	n	0	0        	 	0.0	0	264.830302599999	264.930293899997	0.0999912999977823
171237	100	311	stimuli/movArt/car/ma_car08.jpg                  	1	4	1	ma_car08.jpg         	movArt   	2	car       	5	car08       	57	not_alive	0	moves	1	artefact	0	n	0	0        	 	0.0	0	264.980291799999	265.080285699998	0.0999938999993901
171387	100	312	stimuli/plant/flower/plant_flower02.jpg          	1	4	1	plant_flower02.jpg   	plant    	6	flower    	16	flower02    	161	alive    	1	still	0	natural 	1	n	0	0        	 	0.0	0	265.130297299998	265.230292099997	0.0999947999989672
171537	100	313	stimuli/plant2/palmtree/plant_palmtree07.jpg     	1	4	1	plant_palmtree07.jpg 	plant2   	7	palmtree  	27	palmtree07  	276	alive    	1	still	0	natural 	1	n	0	0        	 	0.0	0	265.280303199997	265.380293999999	0.099990800001251
171687	100	314	stimuli/animals2/lemur/animal_lemur04.jpg        	1	4	1	animal_lemur04.jpg   	animals2 	1	lemur     	23	lemur04     	233	alive    	1	moves	1	natural 	1	n	0	0        	 	0.0	0	265.430294599999	265.530297699999	0.100003100000322
171837	100	315	stimuli/movArt/bus/ma_bus05.jpg                  	1	4	1	ma_bus05.jpg         	movArt   	2	bus       	3	bus05       	34	not_alive	0	moves	1	artefact	0	n	0	0        	 	0.0	0	265.580310099998	265.680302599998	0.0999924999996438
171987	100	316	stimuli/animals/cat/animal_cat04.jpg             	1	4	1	animal_cat04.jpg     	animals  	0	cat       	6	cat04       	63	alive    	1	moves	1	natural 	1	n	0	0        	 	0.0	0	265.730313199998	265.830309099998	0.0999959000000672
172137	100	317	stimuli/plant/cactus/plant_cactus06.jpg          	1	4	1	plant_cactus06.jpg   	plant    	6	cactus    	4	cactus06    	45	alive    	1	still	0	natural 	1	n	0	0        	 	0.0	0	265.880331199998	265.980312399999	0.0999812000009115
172287	100	318	stimuli/plant2/fern/plant_fern06.jpg             	1	4	1	plant_fern06.jpg     	plant2   	7	fern      	14	fern06      	145	alive    	1	still	0	natural 	1	n	0	0        	 	0.0	0	266.030321099999	266.1303147	0.0999936000007438
172437	100	319	stimuli/animals/dog/animal_dog06.jpg             	1	4	1	animal_dog06.jpg     	animals  	0	dog       	11	dog06       	115	alive    	1	moves	1	natural 	1	n	0	0        	 	0.0	0	266.1803248	266.2803174	0.0999926000004052
176454	100	320	stimuli/plant/flower/plant_flower09.jpg          	1	5	1	plant_flower09.jpg   	plant    	6	flower    	16	flower09    	168	alive    	1	still	0	natural 	1	n	0	0        	 	0.0	0	270.197099199999	270.297091199998	0.0999919999994745
176604	100	321	stimuli/nonmovArt/bench/nma_bench06.jpg          	1	5	1	nma_bench06.jpg      	nonmovArt	4	bench     	1	bench06     	15	not_alive	0	still	0	artefact	0	n	0	0        	 	0.0	0	270.347113399999	270.447095899999	0.0999824999998964
176754	100	322	stimuli/movNat/river/mn_river10.jpg              	1	5	1	mn_river10.jpg       	movNat   	3	river     	29	river10     	299	not_alive	0	moves	1	natural 	1	n	0	0        	 	0.0	0	270.4971071	270.597096699999	0.0999895999993896
176904	100	323	stimuli/plant/tree/plant_tree07.jpg              	1	5	1	plant_tree07.jpg     	plant    	6	tree      	35	tree07      	356	alive    	1	still	0	natural 	1	n	0	0        	 	0.0	0	270.647108199999	270.7471052	0.0999970000011672
177054	100	324	stimuli/movArt/boat/ma_boat07.jpg                	1	5	1	ma_boat07.jpg        	movArt   	2	boat      	2	boat07      	26	not_alive	0	moves	1	artefact	0	n	0	0        	 	0.0	0	270.797110699998	270.897137699998	0.100027000000409
177204	100	325	stimuli/nonmovNat/sand/nmn_sand04.jpg            	1	5	1	nmn_sand04.jpg       	nonmovNat	5	sand      	31	sand04      	313	not_alive	0	still	0	natural 	1	n	0	0        	 	0.0	0	270.9471185	271.047112599997	0.099994099997275
177354	100	326	stimuli/plant2/lemontree/plant_lemontree08.jpg   	1	5	1	plant_lemontree08.jpg	plant2   	7	lemontree 	22	lemontree08 	227	alive    	1	still	0	natural 	1	n	0	0        	 	0.0	0	271.097120899998	271.197114799998	0.0999938999993901
177504	100	327	stimuli/animals/eagle/animal_eagle03.jpg         	1	5	1	animal_eagle03.jpg   	animals  	0	eagle     	13	eagle03     	132	alive    	1	moves	1	natural 	1	n	0	0        	 	0.0	0	271.247141399999	271.347117499998	0.0999760999984574
177654	100	328	stimuli/animals2/lemur/animal_lemur05.jpg        	1	5	1	animal_lemur05.jpg   	animals2 	1	lemur     	23	lemur05     	234	alive    	1	moves	1	natural 	1	n	0	0        	 	0.0	0	271.3971289	271.497141199998	0.100012299997616
177804	100	329	stimuli/movNat/river/mn_river07.jpg              	1	5	1	mn_river07.jpg       	movNat   	3	river     	29	river07     	296	not_alive	0	moves	1	natural 	1	n	0	0        	 	0.0	0	271.547148999998	271.6471556	0.100006600001507
177954	100	330	stimuli/nonmovNat/shell/nmn_shell01.jpg          	1	5	1	nmn_shell01.jpg      	nonmovNat	5	shell     	32	shell01     	320	not_alive	0	still	0	natural 	1	n	0	0        	 	0.0	0	271.6971476	271.7971282	0.0999805999999808
178104	100	331	stimuli/plant/grass/plant_grass09.jpg            	1	5	1	plant_grass09.jpg    	plant    	6	grass     	17	grass09     	178	alive    	1	still	0	natural 	1	n	0	0        	 	0.0	0	271.847139999998	271.947133899997	0.0999938999993901
178254	100	332	stimuli/movNat/hotspring/mn_hotspring08.jpg      	1	5	1	mn_hotspring08.jpg   	movNat   	3	hotspring 	21	hotspring08 	217	not_alive	0	moves	1	natural 	1	n	0	0        	 	0.0	0	271.9971439	272.097137999997	0.099994099997275
178404	100	333	stimuli/movArt/helicopter/ma_helicopter02.jpg    	1	5	1	ma_helicopter02.jpg  	movArt   	2	helicopter	19	helicopter02	191	not_alive	0	moves	1	artefact	0	n	0	0        	 	0.0	0	272.147163399997	272.247148099999	0.0999847000020964
178554	100	334	stimuli/animals/dolphin/animal_dolphin01.jpg     	1	5	1	animal_dolphin01.jpg 	animals  	0	dolphin   	12	dolphin01   	120	alive    	1	moves	1	natural 	1	n	0	0        	 	0.0	0	272.297152299998	272.397153499998	0.100001200000406
178704	100	335	stimuli/plant2/lemontree/plant_lemontree02.jpg   	1	5	1	plant_lemontree02.jpg	plant2   	7	lemontree 	22	lemontree02 	221	alive    	1	still	0	natural 	1	n	0	0        	 	0.0	0	272.447158799998	272.547162699997	0.100003899999138
178854	100	336	stimuli/nonmovNat/shell/nmn_shell06.jpg          	1	5	1	nmn_shell06.jpg      	nonmovNat	5	shell     	32	shell06     	325	not_alive	0	still	0	natural 	1	n	0	0        	 	0.0	0	272.597158999997	272.697154099998	0.0999951000012516
179004	100	337	stimuli/plant/cactus/plant_cactus03.jpg          	1	5	1	plant_cactus03.jpg   	plant    	6	cactus    	4	cactus03    	42	alive    	1	still	0	natural 	1	n	0	0        	 	0.0	0	272.747173599997	272.847158499997	0.0999848999999813
179154	100	338	stimuli/animals2/whale/animal_whale02.jpg        	1	5	1	animal_whale02.jpg   	animals2 	1	whale     	39	whale02     	391	alive    	1	moves	1	natural 	1	n	0	0        	 	0.0	0	272.897170699998	272.997175999997	0.100005299998884
179304	100	339	stimuli/movArt/boat/ma_boat08.jpg                	1	5	1	ma_boat08.jpg        	movArt   	2	boat      	2	boat08      	27	not_alive	0	moves	1	artefact	0	n	0	0        	 	0.0	0	273.047176299999	273.1471681	0.0999918000015896
179454	100	340	stimuli/plant/vine/plant_vine08.jpg              	1	5	1	plant_vine08.jpg     	plant    	6	vine      	36	vine08      	367	alive    	1	still	0	natural 	1	n	0	0        	 	0.0	0	273.197176099999	273.297186399999	0.100010300000577
179604	100	341	stimuli/movArt/car/ma_car07.jpg                  	1	5	1	ma_car07.jpg         	movArt   	2	car       	5	car07       	56	not_alive	0	moves	1	artefact	0	n	1	0        	 	0.0	0	273.347196299997	273.447175499998	0.0999792000002344
179754	100	342	stimuli/plant/grass/plant_grass08.jpg            	1	5	1	plant_grass08.jpg    	plant    	6	grass     	17	grass08     	177	alive    	1	still	0	natural 	1	n	0	0        	 	0.0	0	273.497205199998	273.597177699998	0.099972500000149
179904	100	343	stimuli/movArt/bus/ma_bus03.jpg                  	1	5	1	ma_bus03.jpg         	movArt   	2	bus       	3	bus03       	32	not_alive	0	moves	1	artefact	0	n	0	1        	f	0.300756500000716	1	273.647192999997	273.747183599997	0.0999905999997282
180054	100	344	stimuli/movArt/train/ma_train06.jpg              	1	5	1	ma_train06.jpg       	movArt   	2	train     	34	train06     	345	not_alive	0	moves	1	artefact	0	n	0	0        	 	0.0	0	273.7971932	273.897187999999	0.0999947999989672
180204	100	345	stimuli/nonmovArt/bench/nma_bench02.jpg          	1	5	1	nma_bench02.jpg      	nonmovArt	4	bench     	1	bench02     	11	not_alive	0	still	0	artefact	0	n	0	0        	 	0.0	0	273.947199299997	274.047205199997	0.100005899999815
180354	100	346	stimuli/movNat/hotspring/mn_hotspring01.jpg      	1	5	1	mn_hotspring01.jpg   	movNat   	3	hotspring 	21	hotspring01 	210	not_alive	0	moves	1	natural 	1	n	0	0        	 	0.0	0	274.097212699999	274.1971925	0.0999798000011651
180504	100	347	stimuli/nonmovArt/mug/nma_mug06.jpg              	1	5	1	nma_mug06.jpg        	nonmovArt	4	mug       	26	mug06       	265	not_alive	0	still	0	artefact	0	n	0	0        	 	0.0	0	274.247205199998	274.347209199997	0.100003999999899
180654	100	348	stimuli/animals/horse/animal_horse01.jpg         	1	5	1	animal_horse01.jpg   	animals  	0	horse     	20	horse01     	200	alive    	1	moves	1	natural 	1	n	1	0        	 	0.0	0	274.397208299997	274.497214399999	0.100006100001337
180804	100	349	stimuli/nonmovArt/lock/nma_lock06.jpg            	1	5	1	nma_lock06.jpg       	nonmovArt	4	lock      	24	lock06      	245	not_alive	0	still	0	artefact	0	n	0	0        	 	0.0	0	274.547217299998	274.6472096	0.0999923000017588
180954	100	350	stimuli/movArt/train/ma_train01.jpg              	1	5	1	ma_train01.jpg       	movArt   	2	train     	34	train01     	340	not_alive	0	moves	1	artefact	0	n	0	1        	f	0.401205600002868	1	274.697217899997	274.797208699998	0.099990800001251
181104	100	351	stimuli/nonmovNat/sand/nmn_sand07.jpg            	1	5	1	nmn_sand07.jpg       	nonmovNat	5	sand      	31	sand07      	316	not_alive	0	still	0	natural 	1	n	0	0        	 	0.0	0	274.8472253	274.947227099998	0.100001799997699
181254	100	352	stimuli/nonmovArt/clothespeg/nma_clothespeg04.jpg	1	5	1	nma_clothespeg04.jpg 	nonmovArt	4	clothespeg	8	clothespeg04	83	not_alive	0	still	0	artefact	0	n	0	0        	 	0.0	0	274.997222399998	275.097218299998	0.0999959000000672
181404	100	353	stimuli/nonmovArt/bench/nma_bench03.jpg          	1	5	1	nma_bench03.jpg      	nonmovArt	4	bench     	1	bench03     	12	not_alive	0	still	0	artefact	0	n	0	0        	 	0.0	0	275.147230899998	275.247224899998	0.0999940000001516
181554	100	354	stimuli/animals2/bee/animal_bee02.jpg            	1	5	1	animal_bee02.jpg     	animals2 	1	bee       	0	bee02       	1	alive    	1	moves	1	natural 	1	n	1	0        	 	0.0	0	275.297233399997	275.397240399998	0.100007000000915
181704	100	355	stimuli/nonmovArt/lock/nma_lock05.jpg            	1	5	1	nma_lock05.jpg       	nonmovArt	4	lock      	24	lock05      	244	not_alive	0	still	0	artefact	0	n	0	0        	 	0.0	0	275.447242799997	275.547247399998	0.10000460000083
181854	100	356	stimuli/plant/cactus/plant_cactus03.jpg          	1	5	1	plant_cactus03.jpg   	plant    	6	cactus    	4	cactus03    	42	alive    	1	still	0	natural 	1	n	0	1        	f	0.391979100000753	1	275.5972382	275.6972455	0.100007299999561
182004	100	357	stimuli/animals/horse/animal_horse07.jpg         	1	5	1	animal_horse07.jpg   	animals  	0	horse     	20	horse07     	206	alive    	1	moves	1	natural 	1	n	0	0        	 	0.0	0	275.747248	275.847237799997	0.0999897999972745
182154	100	358	stimuli/plant/tree/plant_tree06.jpg              	1	5	1	plant_tree06.jpg     	plant    	6	tree      	35	tree06      	355	alive    	1	still	0	natural 	1	n	0	0        	 	0.0	0	275.8972498	275.997239499997	0.0999896999965131
182304	100	359	stimuli/animals2/tiger/animal_tiger05.jpg        	1	5	1	animal_tiger05.jpg   	animals2 	1	tiger     	33	tiger05     	334	alive    	1	moves	1	natural 	1	n	0	0        	 	0.0	0	276.047252699998	276.147243299998	0.0999905999997282
182454	100	360	stimuli/animals2/bee/animal_bee10.jpg            	1	5	1	animal_bee10.jpg     	animals2 	1	bee       	0	bee10       	9	alive    	1	moves	1	natural 	1	n	0	0        	 	0.0	0	276.197250599998	276.2972438	0.0999932000013359
182604	100	361	stimuli/nonmovArt/mug/nma_mug01.jpg              	1	5	1	nma_mug01.jpg        	nonmovArt	4	mug       	26	mug01       	260	not_alive	0	still	0	artefact	0	n	0	0        	 	0.0	0	276.347255099998	276.447248999997	0.0999938999993901
182754	100	362	stimuli/animals/eagle/animal_eagle03.jpg         	1	5	1	animal_eagle03.jpg   	animals  	0	eagle     	13	eagle03     	132	alive    	1	moves	1	natural 	1	n	0	0        	 	0.0	0	276.497263099998	276.597249599999	0.0999865000012505
182904	100	363	stimuli/animals2/tiger/animal_tiger04.jpg        	1	5	1	animal_tiger04.jpg   	animals2 	1	tiger     	33	tiger04     	333	alive    	1	moves	1	natural 	1	n	0	0        	 	0.0	0	276.647277999997	276.7472552	0.0999772000031953
183054	100	364	stimuli/nonmovNat/shell/nmn_shell04.jpg          	1	5	1	nmn_shell04.jpg      	nonmovNat	5	shell     	32	shell04     	323	not_alive	0	still	0	natural 	1	n	0	0        	 	0.0	0	276.797265199999	276.897261599999	0.0999964000002365
183204	100	365	stimuli/animals/dolphin/animal_dolphin09.jpg     	1	5	1	animal_dolphin09.jpg 	animals  	0	dolphin   	12	dolphin09   	128	alive    	1	moves	1	natural 	1	n	0	0        	 	0.0	0	276.947270999997	277.047265399997	0.0999943999995594
183354	100	366	stimuli/animals/dolphin/animal_dolphin04.jpg     	1	5	1	animal_dolphin04.jpg 	animals  	0	dolphin   	12	dolphin04   	123	alive    	1	moves	1	natural 	1	n	0	0        	 	0.0	0	277.0972759	277.1972651	0.0999891999999818
183504	100	367	stimuli/movNat/fire/mn_fire05.jpg                	1	5	1	mn_fire05.jpg        	movNat   	3	fire      	15	fire05      	154	not_alive	0	moves	1	natural 	1	n	0	0        	 	0.0	0	277.247280699998	277.347271999999	0.0999913000014203
183654	100	368	stimuli/plant2/moss/plant_moss09.jpg             	1	5	1	plant_moss09.jpg     	plant2   	7	moss      	25	moss09      	258	alive    	1	still	0	natural 	1	n	0	0        	 	0.0	0	277.397281999998	277.497277399998	0.0999953999998979
183804	100	369	stimuli/nonmovNat/cliff/nmn_cliff01.jpg          	1	5	1	nmn_cliff01.jpg      	nonmovNat	5	cliff     	7	cliff01     	70	not_alive	0	still	0	natural 	1	n	0	0        	 	0.0	0	277.547285599998	277.647281699999	0.0999961000015901
183954	100	370	stimuli/movArt/train/ma_train10.jpg              	1	5	1	ma_train10.jpg       	movArt   	2	train     	34	train10     	349	not_alive	0	moves	1	artefact	0	n	0	0        	 	0.0	0	277.697307799997	277.797281499999	0.0999737000020104
184104	100	371	stimuli/nonmovNat/cliff/nmn_cliff02.jpg          	1	5	1	nmn_cliff02.jpg      	nonmovNat	5	cliff     	7	cliff02     	71	not_alive	0	still	0	natural 	1	n	0	0        	 	0.0	0	277.847295699998	277.947288199997	0.0999924999996438
184254	100	372	stimuli/animals2/pigeon/animal_pigeon03.jpg      	1	5	1	animal_pigeon03.jpg  	animals2 	1	pigeon    	28	pigeon03    	282	alive    	1	moves	1	natural 	1	n	0	0        	 	0.0	0	277.997301299998	278.097309699999	0.100008400000661
184404	100	373	stimuli/nonmovArt/clothespeg/nma_clothespeg07.jpg	1	5	1	nma_clothespeg07.jpg 	nonmovArt	4	clothespeg	8	clothespeg07	86	not_alive	0	still	0	artefact	0	n	0	0        	 	0.0	0	278.147302599999	278.247297499998	0.0999948999997287
184554	100	374	stimuli/nonmovArt/mug/nma_mug01.jpg              	1	5	1	nma_mug01.jpg        	nonmovArt	4	mug       	26	mug01       	260	not_alive	0	still	0	artefact	0	n	0	0        	 	0.0	0	278.297304599997	278.397315099999	0.100010500002099
184704	100	375	stimuli/plant/tree/plant_tree03.jpg              	1	5	1	plant_tree03.jpg     	plant    	6	tree      	35	tree03      	352	alive    	1	still	0	natural 	1	n	0	0        	 	0.0	0	278.4473134	278.547302499999	0.0999890999992203
184854	100	376	stimuli/plant2/clover/plant_clover02.jpg         	1	5	1	plant_clover02.jpg   	plant2   	7	clover    	9	clover02    	91	alive    	1	still	0	natural 	1	n	0	0        	 	0.0	0	278.597328199998	278.697309199997	0.0999809999993886
185004	100	377	stimuli/plant2/moss/plant_moss04.jpg             	1	5	1	plant_moss04.jpg     	plant2   	7	moss      	25	moss04      	253	alive    	1	still	0	natural 	1	n	0	0        	 	0.0	0	278.7473183	278.847314499999	0.0999961999987136
185154	100	378	stimuli/plant2/fern/plant_fern01.jpg             	1	5	1	plant_fern01.jpg     	plant2   	7	fern      	14	fern01      	140	alive    	1	still	0	natural 	1	n	0	0        	 	0.0	0	278.897323499998	278.997314	0.0999905000026047
185304	100	379	stimuli/animals/dog/animal_dog07.jpg             	1	5	1	animal_dog07.jpg     	animals  	0	dog       	11	dog07       	116	alive    	1	moves	1	natural 	1	n	0	0        	 	0.0	0	279.0473451	279.147319799999	0.099974699998711
185454	100	380	stimuli/movArt/bus/ma_bus08.jpg                  	1	5	1	ma_bus08.jpg         	movArt   	2	bus       	3	bus08       	37	not_alive	0	moves	1	artefact	0	n	0	0        	 	0.0	0	279.197327499998	279.297345999999	0.10001850000117
185604	100	381	stimuli/movNat/waterfall/mn_waterfall03.jpg      	1	5	1	mn_waterfall03.jpg   	movNat   	3	waterfall 	37	waterfall03 	372	not_alive	0	moves	1	natural 	1	n	0	0        	 	0.0	0	279.347334399998	279.447328499998	0.099994100000913
185754	100	382	stimuli/plant2/clover/plant_clover09.jpg         	1	5	1	plant_clover09.jpg   	plant2   	7	clover    	9	clover09    	98	alive    	1	still	0	natural 	1	n	0	0        	 	0.0	0	279.497337099998	279.5973285	0.0999914000021818
185904	100	383	stimuli/plant2/lemontree/plant_lemontree07.jpg   	1	5	1	plant_lemontree07.jpg	plant2   	7	lemontree 	22	lemontree07 	226	alive    	1	still	0	natural 	1	n	0	0        	 	0.0	0	279.647342799999	279.747336999997	0.0999941999980365
186054	100	384	stimuli/plant2/palmtree/plant_palmtree01.jpg     	1	5	1	plant_palmtree01.jpg 	plant2   	7	palmtree  	27	palmtree01  	270	alive    	1	still	0	natural 	1	n	0	0        	 	0.0	0	279.797343499999	279.897341299999	0.0999977999999828
186204	100	385	stimuli/animals/cat/animal_cat01.jpg             	1	5	1	animal_cat01.jpg     	animals  	0	cat       	6	cat01       	60	alive    	1	moves	1	natural 	1	n	0	0        	 	0.0	0	279.947351299998	280.047342499998	0.0999912000006589
186354	100	386	stimuli/animals2/tiger/animal_tiger01.jpg        	1	5	1	animal_tiger01.jpg   	animals2 	1	tiger     	33	tiger01     	330	alive    	1	moves	1	natural 	1	n	0	0        	 	0.0	0	280.0973552	280.197359099999	0.100003899999138
186504	100	387	stimuli/plant/vine/plant_vine06.jpg              	1	5	1	plant_vine06.jpg     	plant    	6	vine      	36	vine06      	365	alive    	1	still	0	natural 	1	n	0	0        	 	0.0	0	280.2473594	280.347353899997	0.0999944999966829
186654	100	388	stimuli/movNat/hotspring/mn_hotspring09.jpg      	1	5	1	mn_hotspring09.jpg   	movNat   	3	hotspring 	21	hotspring09 	218	not_alive	0	moves	1	natural 	1	n	0	0        	 	0.0	0	280.397358499999	280.497354299998	0.0999957999993058
186804	100	389	stimuli/animals2/whale/animal_whale05.jpg        	1	5	1	animal_whale05.jpg   	animals2 	1	whale     	39	whale05     	394	alive    	1	moves	1	natural 	1	n	0	0        	 	0.0	0	280.547365399998	280.647359399998	0.0999940000001516
186954	100	390	stimuli/nonmovArt/clothespeg/nma_clothespeg10.jpg	1	5	1	nma_clothespeg10.jpg 	nonmovArt	4	clothespeg	8	clothespeg10	89	not_alive	0	still	0	artefact	0	n	0	0        	 	0.0	0	280.6973717	280.797358699998	0.0999869999977818
187104	100	391	stimuli/animals2/pigeon/animal_pigeon08.jpg      	1	5	1	animal_pigeon08.jpg  	animals2 	1	pigeon    	28	pigeon08    	287	alive    	1	moves	1	natural 	1	n	0	0        	 	0.0	0	280.8473901	280.947382899998	0.0999927999982901
187254	100	392	stimuli/plant/flower/plant_flower09.jpg          	1	5	1	plant_flower09.jpg   	plant    	6	flower    	16	flower09    	168	alive    	1	still	0	natural 	1	n	0	0        	 	0.0	0	280.997376299998	281.097372199998	0.0999959000000672
187404	100	393	stimuli/movArt/bus/ma_bus05.jpg                  	1	5	1	ma_bus05.jpg         	movArt   	2	bus       	3	bus05       	34	not_alive	0	moves	1	artefact	0	n	0	0        	 	0.0	0	281.147401299997	281.247375399998	0.0999741000014183
187554	100	394	stimuli/plant/cactus/plant_cactus05.jpg          	1	5	1	plant_cactus05.jpg   	plant    	6	cactus    	4	cactus05    	44	alive    	1	still	0	natural 	1	n	0	0        	 	0.0	0	281.2973848	281.397378099999	0.0999932999984594
187704	100	395	stimuli/plant/tree/plant_tree07.jpg              	1	5	1	plant_tree07.jpg     	plant    	6	tree      	35	tree07      	356	alive    	1	still	0	natural 	1	n	0	0        	 	0.0	0	281.447390699999	281.5473819	0.0999912000006589
187854	100	396	stimuli/animals/cat/animal_cat08.jpg             	1	5	1	animal_cat08.jpg     	animals  	0	cat       	6	cat08       	67	alive    	1	moves	1	natural 	1	n	0	0        	 	0.0	0	281.597394499997	281.697401599999	0.100007100001676
188004	100	397	stimuli/nonmovNat/shell/nmn_shell03.jpg          	1	5	1	nmn_shell03.jpg      	nonmovNat	5	shell     	32	shell03     	322	not_alive	0	still	0	natural 	1	n	0	0        	 	0.0	0	281.747415799997	281.8473901	0.0999743000029412
188154	100	398	stimuli/movArt/helicopter/ma_helicopter05.jpg    	1	5	1	ma_helicopter05.jpg  	movArt   	2	helicopter	19	helicopter05	194	not_alive	0	moves	1	artefact	0	n	0	0        	 	0.0	0	281.897402399998	281.9973928	0.0999904000018432
188304	100	399	stimuli/movArt/boat/ma_boat06.jpg                	1	5	1	ma_boat06.jpg        	movArt   	2	boat      	2	boat06      	25	not_alive	0	moves	1	artefact	0	n	0	0        	 	0.0	0	282.047406499998	282.1473993	0.0999928000019281
191654	100	400	stimuli/movNat/waves/mn_waves01.jpg              	1	6	1	mn_waves01.jpg       	movNat   	3	waves     	38	waves01     	380	not_alive	0	moves	1	natural 	1	n	0	0        	 	0.0	0	285.3975092	285.497496599997	0.0999873999971896
191804	100	401	stimuli/nonmovArt/lock/nma_lock08.jpg            	1	6	1	nma_lock08.jpg       	nonmovArt	4	lock      	24	lock08      	247	not_alive	0	still	0	artefact	0	n	0	0        	 	0.0	0	285.547509599997	285.647497599999	0.0999880000017583
191954	100	402	stimuli/movArt/bus/ma_bus01.jpg                  	1	6	1	ma_bus01.jpg         	movArt   	2	bus       	3	bus01       	30	not_alive	0	moves	1	artefact	0	n	0	0        	 	0.0	0	285.697510999998	285.797513599999	0.100002600000153
192104	100	403	stimuli/movArt/train/ma_train06.jpg              	1	6	1	ma_train06.jpg       	movArt   	2	train     	34	train06     	345	not_alive	0	moves	1	artefact	0	n	0	0        	 	0.0	0	285.847513099998	285.947506699998	0.0999936000007438
192254	100	404	stimuli/animals/dog/animal_dog08.jpg             	1	6	1	animal_dog08.jpg     	animals  	0	dog       	11	dog08       	117	alive    	1	moves	1	natural 	1	n	0	0        	 	0.0	0	285.997516399999	286.097510399999	0.0999940000001516
192404	100	405	stimuli/plant/vine/plant_vine04.jpg              	1	6	1	plant_vine04.jpg     	plant    	6	vine      	36	vine04      	363	alive    	1	still	0	natural 	1	n	0	0        	 	0.0	0	286.147523099997	286.247514699997	0.0999916000000667
192554	100	406	stimuli/animals/eagle/animal_eagle05.jpg         	1	6	1	animal_eagle05.jpg   	animals  	0	eagle     	13	eagle05     	134	alive    	1	moves	1	natural 	1	n	0	0        	 	0.0	0	286.297523099998	286.397532799998	0.100009699999646
192704	100	407	stimuli/animals2/tiger/animal_tiger09.jpg        	1	6	1	animal_tiger09.jpg   	animals2 	1	tiger     	33	tiger09     	338	alive    	1	moves	1	natural 	1	n	0	0        	 	0.0	0	286.4475303	286.5475214	0.0999910999998974
192854	100	408	stimuli/nonmovNat/rock/nmn_rock01.jpg            	1	6	1	nmn_rock01.jpg       	nonmovNat	5	rock      	30	rock01      	300	not_alive	0	still	0	natural 	1	n	0	0        	 	0.0	0	286.597529499999	286.697525399999	0.0999959000000672
193004	100	409	stimuli/animals/eagle/animal_eagle04.jpg         	1	6	1	animal_eagle04.jpg   	animals  	0	eagle     	13	eagle04     	133	alive    	1	moves	1	natural 	1	n	0	0        	 	0.0	0	286.7475486	286.847528899998	0.0999802999976964
193154	100	410	stimuli/plant/tree/plant_tree09.jpg              	1	6	1	plant_tree09.jpg     	plant    	6	tree      	35	tree09      	358	alive    	1	still	0	natural 	1	n	0	0        	 	0.0	0	286.897542799998	286.997543499998	0.100000700000237
193304	100	411	stimuli/nonmovNat/cliff/nmn_cliff10.jpg          	1	6	1	nmn_cliff10.jpg      	nonmovNat	5	cliff     	7	cliff10     	79	not_alive	0	still	0	natural 	1	n	1	0        	 	0.0	0	287.047545499998	287.147540099999	0.0999946000010823
193454	100	412	stimuli/nonmovArt/mug/nma_mug07.jpg              	1	6	1	nma_mug07.jpg        	nonmovArt	4	mug       	26	mug07       	266	not_alive	0	still	0	artefact	0	n	0	0        	 	0.0	0	287.197545899999	287.297544599998	0.0999986999995599
193604	100	413	stimuli/plant/vine/plant_vine01.jpg              	1	6	1	plant_vine01.jpg     	plant    	6	vine      	36	vine01      	360	alive    	1	still	0	natural 	1	n	0	1        	f	0.391999600000418	1	287.347551699997	287.447547599997	0.0999959000000672
193754	100	414	stimuli/animals/horse/animal_horse09.jpg         	1	6	1	animal_horse09.jpg   	animals  	0	horse     	20	horse09     	208	alive    	1	moves	1	natural 	1	n	0	0        	 	0.0	0	287.497555499998	287.597547699999	0.0999922000009974
193904	100	415	stimuli/nonmovArt/bench/nma_bench08.jpg          	1	6	1	nma_bench08.jpg      	nonmovArt	4	bench     	1	bench08     	17	not_alive	0	still	0	artefact	0	n	0	0        	 	0.0	0	287.647561799997	287.747553199999	0.0999914000021818
